'1. Block','2. Trial','3. Stimulus','4. Offset','5. fliplr','6. Order','7. Ident Resp','8. Discrim Resp','9. Ident Correct','10. Discrim Correct','11. Ident RT','12. Discrim RT',13. Question Condition',14. Participant ID'
1,1,-0.25,0.25,1,2,1,1,1,0,1.438748104,1.750847577,2,S01
1,2,-2,2,1,1,1,2,1,0,2.155423796,3.299460512,2,S01
1,3,4,4,1,1,1,1,0,1,0.407030131,0.735003985,2,S01
1,4,0.25,0.25,2,2,2,2,1,1,1.015429556,2.127339885,2,S01
1,5,8,8,2,1,2,2,1,0,0.979488898,1.347521048,2,S01
1,6,1,1,2,2,1,1,0,0,0.424149674,0.704086839,2,S01
1,7,-0.5,0.5,2,1,1,1,1,1,0.515972295,0.803931021,2,S01
1,8,-0.5,0.5,2,2,2,2,0,1,0.541710473,0.853624303,2,S01
1,9,-0.5,0.5,2,1,1,1,1,1,0.264360528,0.608366333,2,S01
1,10,0.5,0.5,2,2,1,1,0,0,0.426244263,0.610216115,2,S01
1,11,1,1,1,2,2,2,1,1,0.435994862,0.731947075,2,S01
1,12,-2,2,2,2,1,2,1,1,0.424598838,0.696198399,2,S01
1,13,-1,1,2,2,1,1,1,0,0.551550724,0.832270304,2,S01
1,14,-0.5,0.5,1,2,1,1,1,0,0.569781706,0.809866142,2,S01
1,15,0.5,0.5,2,1,2,2,1,0,0.299594838,0.467607186,2,S01
1,16,-1,1,1,2,2,2,0,1,0.459231245,0.650575664,2,S01
1,17,8,8,1,1,2,2,1,0,0.093278592,0.397379748,2,S01
1,18,-2,2,2,1,1,1,1,1,0.018910878,0.194971952,2,S01
1,19,4,4,1,2,1,1,0,0,1.112484574,1.240409648,2,S01
1,20,-1,1,1,1,2,2,0,0,0.134909866,0.438977516,2,S01
1,21,-0.25,0.25,2,2,1,1,1,0,0.333388384,0.541354885,2,S01
1,22,-1,1,2,1,1,1,1,1,0.166306361,0.397854268,2,S01
1,23,-1,1,2,2,1,1,1,0,0.115411988,0.459406322,2,S01
1,24,-0.5,0.5,1,1,1,2,1,0,0.4461255,0.710236279,2,S01
1,25,-4,4,1,1,1,1,1,1,0.342069804,0.566060709,2,S01
1,26,-4,4,1,1,1,1,1,1,1.48688018,1.750875952,2,S01
1,27,0.5,0.5,2,1,1,1,0,1,0.179520473,0.499424168,2,S01
1,28,2,2,1,2,1,1,0,0,0.199776013,0.439132369,2,S01
1,29,-0.5,0.5,1,2,1,2,1,1,1.493693706,1.757612504,2,S01
1,30,0.5,0.5,2,2,1,1,0,0,0.142594553,0.694468756,2,S01
1,31,0.5,0.5,2,2,1,1,0,0,0.317879853,0.645923135,2,S01
1,32,8,8,1,2,2,2,1,1,0.61245137,0.956590898,2,S01
1,33,-2,2,2,2,1,2,1,1,0.709312897,1.005228283,2,S01
1,34,8,8,1,2,2,2,1,1,0.495033652,0.814925876,2,S01
1,35,-0.5,0.5,2,2,2,2,0,1,0.773124355,0.981062783,2,S01
1,36,-2,2,1,1,1,1,1,1,0.486435544,0.758461629,2,S01
1,37,0.25,0.25,1,1,2,2,1,0,1.151276275,1.463256816,2,S01
1,38,-2,2,2,1,2,2,0,0,0.302957832,0.590175196,2,S01
1,39,-8,8,2,2,1,1,1,0,0.208106675,0.567592334,2,S01
1,40,-2,2,1,2,1,2,1,1,0.072428694,0.440395642,2,S01
1,41,2,2,1,2,2,2,1,1,0.35891677,0.670926893,2,S01
1,42,1,1,1,1,1,2,0,0,1.26994972,2.013888272,2,S01
1,43,0.25,0.25,2,1,1,2,0,0,0.575679397,0.863670723,2,S01
1,44,-8,8,1,2,1,2,1,1,0.430610933,0.758625236,2,S01
1,45,1,1,2,1,1,2,0,0,0.312112263,0.591517857,2,S01
1,46,8,8,2,2,2,2,1,1,0.365115715,0.709013153,2,S01
1,47,0.5,0.5,1,1,1,2,0,0,0.392772196,0.696682276,2,S01
1,48,8,8,2,2,2,2,1,1,0.448088177,0.73606924,2,S01
1,49,2,2,1,1,1,2,0,0,0.440445147,0.720459588,2,S01
1,50,-4,4,2,1,1,1,1,1,0.29636919,0.584375005,2,S01
1,51,2,2,1,1,1,1,0,1,0.193802858,0.481828897,2,S01
1,52,-1,1,1,1,2,2,0,0,0.381499631,0.644967756,2,S01
1,53,2,2,2,1,1,2,0,0,0.307528558,0.643492277,2,S01
1,54,-1,1,1,2,1,2,1,1,0.634379502,0.969907037,2,S01
1,55,-4,4,2,2,1,2,1,1,0.287358745,0.606996504,2,S01
1,56,4,4,1,2,2,2,1,1,0.32889916,0.63281739,2,S01
1,57,-1,1,1,1,1,2,1,0,1.019045506,1.36307878,2,S01
1,58,-8,8,2,1,1,1,1,1,0.260027666,0.57993287,2,S01
1,59,-2,2,1,2,1,2,1,1,0.373368497,0.677215489,2,S01
1,60,8,8,1,1,2,1,1,1,0.256465144,0.584556119,2,S01
1,61,-8,8,2,2,1,2,1,1,0.393816925,0.689751629,2,S01
1,62,-4,4,2,2,1,2,1,1,0.409418729,0.729205907,2,S01
1,63,4,4,2,2,2,2,1,1,0.333438492,0.605324515,2,S01
1,64,0.5,0.5,1,1,1,2,0,0,0.311214237,0.703126933,2,S01
1,65,-0.5,0.5,1,1,1,2,1,0,0.386861525,0.690849787,2,S01
1,66,-4,4,2,2,1,2,1,1,0.28234127,0.570326257,2,S01
1,67,8,8,1,2,2,2,1,1,0.31939548,0.631403792,2,S01
1,68,1,1,1,1,1,1,0,1,1.321613528,1.625700195,2,S01
1,69,0.5,0.5,1,1,1,1,0,1,0.071559043,0.384265853,2,S01
1,70,-4,4,2,1,1,1,1,1,0.321624395,0.593145775,2,S01
1,71,8,8,2,1,2,2,1,0,0.351021688,0.62252556,2,S01
1,72,-4,4,1,2,1,2,1,1,0.348546457,0.620488023,2,S01
1,73,-2,2,2,2,1,2,1,1,0.482694926,0.746578105,2,S01
1,74,-1,1,2,1,1,2,1,0,0.367180721,0.615206725,2,S01
1,75,4,4,2,2,2,2,1,1,0.757276839,1.053314477,2,S01
1,76,-8,8,1,1,1,1,1,1,0.392007893,0.800537237,2,S01
1,77,1,1,1,2,1,1,0,0,0.557559196,0.821623188,2,S01
1,78,0.25,0.25,1,1,1,2,0,0,1.083671979,1.811566203,2,S01
1,79,2,2,2,1,2,2,1,0,0.549370407,0.797330304,2,S01
1,80,-4,4,1,1,1,1,1,1,0.298858306,0.602906637,2,S01
1,81,-1,1,2,2,1,1,1,0,0.840520068,1.104532743,2,S01
1,82,2,2,2,2,2,2,1,1,0.572218903,0.812158447,2,S01
1,83,4,4,2,2,2,2,1,1,0.046008923,0.333932633,2,S01
1,84,-0.5,0.5,2,2,1,1,1,0,0.358272908,0.550314919,2,S01
1,85,-8,8,1,2,1,2,1,1,0.378993309,0.842940663,2,S01
1,86,-8,8,2,1,1,1,1,1,0.249436997,0.489379862,2,S01
1,87,-0.5,0.5,2,1,1,1,1,1,0.4647981,0.792761389,2,S01
1,88,-0.5,0.5,2,1,1,2,1,0,0.294438208,0.550422381,2,S01
1,89,4,4,1,1,2,1,1,1,0.499035074,0.731100364,2,S01
1,90,-0.25,0.25,1,1,1,2,1,0,0.423609349,0.647129961,2,S01
1,91,8,8,2,1,2,1,1,1,0.27759094,0.525611811,2,S01
1,92,4,4,2,1,2,1,1,1,1.185759263,1.457835456,2,S01
1,93,-4,4,1,2,1,2,1,1,0.060590449,0.340576817,2,S01
1,94,-1,1,1,1,1,1,1,1,1.460890555,1.65286646,2,S01
1,95,-0.25,0.25,1,2,1,1,1,0,0.319620967,0.5117152,2,S01
1,96,-1,1,1,2,1,1,1,0,0.207604384,0.439498522,2,S01
1,97,1,1,1,1,2,2,1,0,1.246011519,1.478046322,2,S01
1,98,0.25,0.25,2,1,2,2,1,0,0.337251857,0.553265878,2,S01
1,99,1,1,2,2,2,2,1,1,0.237887026,0.430359787,2,S01
1,100,2,2,2,2,1,1,0,0,0.176118539,0.400105521,2,S01
1,101,0.25,0.25,1,1,2,2,1,0,0.373757893,0.677701782,2,S01
1,102,-2,2,1,2,2,2,0,1,0.096883977,0.384901565,2,S01
1,103,-0.25,0.25,2,1,1,1,1,1,0.122326636,0.33031638,2,S01
1,104,4,4,2,1,2,2,1,0,0.582418968,0.790483271,2,S01
1,105,-0.25,0.25,1,2,2,2,0,1,0.895685422,1.111741099,2,S01
1,106,2,2,1,1,1,2,0,0,0.375753473,0.695733538,2,S01
1,107,4,4,2,2,2,2,1,1,0.37507369,0.598984905,2,S01
1,108,-2,2,1,1,1,1,1,1,0.380758873,0.564595493,2,S01
1,109,-4,4,1,2,2,1,0,0,0.326166142,0.461497591,2,S01
1,110,2,2,1,1,1,1,0,1,0.340535764,0.612858877,2,S01
1,111,0.25,0.25,2,2,2,2,1,1,0.422372639,0.534320399,2,S01
1,112,8,8,1,1,2,1,1,1,0.302693405,0.486637487,2,S01
1,113,0.5,0.5,2,1,2,1,1,1,0.206320585,0.438116015,2,S01
1,114,0.5,0.5,1,1,2,1,1,1,0.360299881,0.632384526,2,S01
1,115,0.5,0.5,1,2,2,2,1,1,0.346714183,0.546716477,2,S01
1,116,-0.25,0.25,1,1,1,1,1,1,0.231272725,0.503256852,2,S01
1,117,-0.5,0.5,2,2,2,2,0,1,0.258975089,0.498972589,2,S01
1,118,-4,4,2,1,1,1,1,1,0.486776945,0.742637658,2,S01
1,119,2,2,1,2,1,2,0,1,1.263085784,1.935048841,2,S01
1,120,4,4,1,1,2,2,1,0,0.255376042,0.479351251,2,S01
1,121,8,8,2,2,2,2,1,1,0.298671758,0.4905725,2,S01
1,122,4,4,1,1,2,2,1,0,0.442124983,0.83398093,2,S01
1,123,-4,4,2,2,1,2,1,1,0.564293032,0.828319291,2,S01
1,124,1,1,1,1,2,1,1,1,3.358600423,4.030459944,2,S01
1,125,8,8,2,1,2,1,1,1,0.408715703,0.73663643,2,S01
1,126,4,4,2,1,2,1,1,1,0.337764411,0.553224523,2,S01
1,127,4,4,1,2,1,2,0,1,2.493740494,3.117598341,2,S01
1,128,0.5,0.5,1,2,1,2,0,1,0.437685264,0.717533985,2,S01
1,129,-0.25,0.25,2,2,2,1,0,0,0.57343388,1.1653863,2,S01
1,130,0.25,0.25,2,1,2,2,1,0,1.134346902,1.31072885,2,S01
1,131,-0.5,0.5,1,1,1,2,1,0,0.686255818,0.862151776,2,S01
1,132,0.25,0.25,1,2,1,1,0,0,0.84511947,1.06114315,2,S01
1,133,-1,1,2,1,1,2,1,0,0.095976594,0.3278656,2,S01
1,134,2,2,2,1,2,1,1,1,0.388007678,0.612048994,2,S01
1,135,8,8,1,1,2,1,1,1,0.31015351,0.445912389,2,S01
1,136,-2,2,2,2,1,2,1,1,0.556311318,0.804302003,2,S01
1,137,-4,4,2,1,1,1,1,1,0.350259498,0.48621066,2,S01
1,138,2,2,2,2,2,2,1,1,0.397648401,0.59770835,2,S01
1,139,4,4,2,1,2,1,1,1,0.283188886,0.555075815,2,S01
1,140,1,1,1,2,1,1,0,0,0.503797479,0.639754678,2,S01
1,141,-8,8,2,2,1,1,1,0,0.214344861,0.478238303,2,S01
1,142,0.5,0.5,2,1,1,1,0,1,0.209504879,0.409562111,2,S01
1,143,1,1,1,2,1,2,0,1,1.083275942,1.29926189,2,S01
1,144,0.5,0.5,1,2,1,1,0,0,0.310931397,0.542963483,2,S01
1,145,-2,2,1,1,1,1,1,1,0.111293445,0.359358689,2,S01
1,146,0.25,0.25,2,2,1,1,0,0,0.376224672,0.568202992,2,S01
1,147,-0.25,0.25,2,1,1,1,1,1,0.221420098,0.389433954,2,S01
1,148,0.25,0.25,2,2,1,1,0,0,0.134586275,0.318666494,2,S01
1,149,0.5,0.5,2,2,1,1,0,0,0.182599721,0.390603652,2,S01
1,150,0.25,0.25,1,2,1,1,0,0,0.279979839,0.559897082,2,S01
1,151,-8,8,2,2,1,2,1,1,0.240788781,0.472795813,2,S01
1,152,1,1,2,1,1,2,0,0,0.511690448,0.735738102,2,S01
1,153,-8,8,2,1,1,1,1,1,0.448134663,0.664116687,2,S01
1,154,-1,1,2,2,1,2,1,1,0.335068824,0.599073349,2,S01
1,155,-0.25,0.25,1,1,1,1,1,1,0.404644249,0.597140254,2,S01
1,156,-2,2,2,1,1,1,1,1,0.306222421,0.570252302,2,S01
1,157,0.25,0.25,1,1,1,1,0,1,0.295383323,0.44735406,2,S01
1,158,1,1,2,1,1,1,0,1,0.325835005,0.509810781,2,S01
1,159,-8,8,2,1,1,1,1,1,0.229827432,0.453742269,2,S01
1,160,-0.25,0.25,1,1,1,1,1,1,0.073088856,0.320472205,2,S01
1,161,-0.25,0.25,2,2,2,2,0,1,0.100678326,0.308577814,2,S01
1,162,-8,8,1,2,1,2,1,1,0.18101195,0.556510242,2,S01
1,163,0.25,0.25,1,2,1,1,0,0,0.077427152,0.277413749,2,S01
1,164,-0.5,0.5,1,2,1,1,1,0,0.104623301,0.344675739,2,S01
1,165,-8,8,1,1,1,1,1,1,0.109804382,0.461257916,2,S01
1,166,-0.25,0.25,2,2,2,2,0,1,1.063933822,1.35998776,2,S01
1,167,-1,1,2,1,1,1,1,1,0.264781921,0.433016737,2,S01
1,168,-2,2,1,2,1,2,1,1,0.291672891,0.515007559,2,S01
1,169,4,4,1,2,2,2,1,1,0.251102647,0.483078889,2,S01
1,170,-0.25,0.25,1,2,1,2,1,1,0.286188745,0.470205273,2,S01
1,171,0.25,0.25,1,2,1,1,0,0,0.045252468,0.229358949,2,S01
1,172,-0.5,0.5,1,2,1,2,1,1,0.215468073,0.415487573,2,S01
1,173,-4,4,1,1,1,1,1,1,0.221606646,0.485505219,2,S01
1,174,2,2,1,2,1,1,0,0,0.149614248,0.333004119,2,S01
1,175,-1,1,1,2,1,1,1,0,0.149307863,0.309321591,2,S01
1,176,-8,8,1,1,1,1,1,1,0.029221121,0.229234885,2,S01
1,177,-2,2,2,1,1,1,1,1,0.119541096,0.383463214,2,S01
1,178,0.5,0.5,1,2,1,1,0,0,0.136747272,0.305290888,2,S01
1,179,1,1,2,1,2,2,1,0,0.564434,0.748543801,2,S01
1,180,8,8,1,2,2,2,1,1,0.209275467,0.409180865,2,S01
1,181,2,2,2,1,1,1,0,1,0.586849632,0.723495066,2,S01
1,182,1,1,2,2,1,2,0,1,0.423126075,0.583165764,2,S01
1,183,0.25,0.25,2,1,2,2,1,0,0.176498276,0.424531826,2,S01
1,184,-4,4,1,2,1,1,1,0,0.254596948,0.382624352,2,S01
1,185,-8,8,1,2,1,1,1,0,0.151845578,0.360048735,2,S01
1,186,-0.5,0.5,1,1,2,2,0,0,0.480730136,0.720688094,2,S01
1,187,-8,8,1,1,1,1,1,1,0.493156098,0.676873183,2,S01
1,188,1,1,2,2,2,2,1,1,0.216045224,0.344060554,2,S01
1,189,2,2,2,2,1,1,0,0,0.156742008,0.373218776,2,S01
1,190,8,8,2,2,2,2,1,1,0.305908489,0.481827086,2,S01
1,191,-0.25,0.25,2,1,2,2,0,0,0.181012856,0.316995109,2,S01
1,192,-0.25,0.25,2,1,1,1,1,1,0.188886204,0.388832353,2,S01
2,1,-1,1,2,2,1,1,1,0,0.053239616,0.212772184,2,S01
2,2,-0.5,0.5,1,2,1,2,1,1,0.510670471,0.790629974,2,S01
2,3,-4,4,1,2,1,2,1,1,0.479963418,0.719850439,2,S01
2,4,0.25,0.25,1,2,1,1,0,0,0.151802714,0.343790089,2,S01
2,5,-2,2,1,1,1,1,1,1,0.244509778,0.476383691,2,S01
2,6,-1,1,1,1,1,1,1,1,0.263694026,0.423641648,2,S01
2,7,0.5,0.5,2,1,2,2,1,0,0.230050202,0.36573905,2,S01
2,8,-8,8,1,1,1,1,1,1,0.238539339,0.422500325,2,S01
2,9,2,2,2,1,2,2,1,0,0.045183645,0.188623588,2,S01
2,10,0.25,0.25,1,2,2,2,1,1,0.717898327,0.86212642,2,S01
2,11,-0.5,0.5,1,1,1,1,1,1,0.31683603,0.493022375,2,S01
2,12,-0.25,0.25,1,1,1,1,1,1,0.196417245,0.356391732,2,S01
2,13,4,4,1,1,2,1,1,1,0.421278708,0.621218518,2,S01
2,14,-2,2,2,2,1,1,1,0,0.419785419,0.555339638,2,S01
2,15,4,4,2,2,2,2,1,1,0.335938777,0.511801833,2,S01
2,16,-1,1,1,2,1,2,1,1,0.351820705,0.519720158,2,S01
2,17,-4,4,2,2,1,2,1,1,0.29582313,0.519776605,2,S01
2,18,-2,2,2,1,1,1,1,1,0.287735463,0.487601619,2,S01
2,19,8,8,1,2,2,2,1,1,0.399093695,0.535113378,2,S01
2,20,4,4,1,1,2,1,1,1,0.51142753,0.67146269,2,S01
2,21,-4,4,1,1,1,1,1,1,0.310491289,0.518401644,2,S01
2,22,1,1,1,1,2,2,1,0,0.29501717,0.422317399,2,S01
2,23,0.5,0.5,2,2,1,2,0,1,0.340341368,0.548559015,2,S01
2,24,-2,2,1,2,1,2,1,1,0.24921815,0.424928164,2,S01
2,25,-8,8,2,2,1,2,1,1,0.319546107,0.551086467,2,S01
2,26,-0.25,0.25,2,1,1,1,1,1,0.043696393,0.220444193,2,S01
2,27,-1,1,2,1,1,1,1,1,1.289872916,1.497737389,2,S01
2,28,-8,8,1,1,1,1,1,1,0.285360147,0.525400511,2,S01
2,29,-2,2,2,1,1,1,1,1,0.377467118,0.465538556,2,S01
2,30,1,1,2,1,1,1,0,1,0.256440694,0.424422553,2,S01
2,31,8,8,2,2,2,2,1,1,0.270532607,0.526598885,2,S01
2,32,4,4,1,2,2,2,1,1,0.394765964,0.546761453,2,S01
2,33,0.25,0.25,1,1,1,1,0,1,0.255324425,0.439349404,2,S01
2,34,4,4,2,1,2,1,1,1,0.237760849,0.445890051,2,S01
2,35,4,4,2,2,2,2,1,1,0.364436233,0.492357685,2,S01
2,36,8,8,1,1,2,2,1,0,0.291761336,1.515739563,2,S01
2,37,0.5,0.5,2,1,2,2,1,0,0.435652858,1.155685205,2,S01
2,38,8,8,2,1,2,1,1,1,0.344307171,0.672303061,2,S01
2,39,-0.25,0.25,1,2,1,1,1,0,0.279255382,0.407491067,2,S01
2,40,0.25,0.25,1,2,2,2,1,1,0.281078902,0.384958012,2,S01
2,41,-1,1,1,2,2,2,0,1,1.018337047,1.378368162,2,S01
2,42,-0.5,0.5,1,1,1,1,1,1,0.55934257,0.735371044,2,S01
2,43,4,4,1,1,2,1,1,1,0.351822214,0.615688187,2,S01
2,44,8,8,1,1,2,1,1,1,0.541740357,0.821699859,2,S01
2,45,-4,4,1,2,1,2,1,1,0.331813291,0.507840256,2,S01
2,46,1,1,1,1,2,2,1,0,0.231596014,0.36746809,2,S01
2,47,8,8,2,1,2,1,1,1,0.364586257,0.58067393,2,S01
2,48,-0.25,0.25,2,2,1,1,1,0,0.342007319,0.597968249,2,S01
2,49,0.5,0.5,2,2,2,2,1,1,0.387551571,0.563635889,2,S01
2,50,-2,2,2,2,2,2,0,1,0.172360414,0.484436342,2,S01
2,51,-0.5,0.5,2,1,2,2,0,0,0.335600395,0.591540799,2,S01
2,52,-0.5,0.5,1,2,1,2,1,1,0.525822206,0.829134005,2,S01
2,53,0.25,0.25,2,1,1,1,0,1,0.279392727,0.511397948,2,S01
2,54,-4,4,1,1,1,1,1,1,0.351273739,0.567397938,2,S01
2,55,-1,1,2,2,2,2,0,1,0.320247321,0.552233827,2,S01
2,56,0.25,0.25,2,1,1,2,0,0,0.292885453,0.444784649,2,S01
2,57,-0.5,0.5,2,1,1,2,1,0,0.211311798,0.379383007,2,S01
2,58,8,8,2,2,2,2,1,1,0.356733737,0.572636674,2,S01
2,59,4,4,2,2,2,2,1,1,0.321767174,0.537794174,2,S01
2,60,-0.25,0.25,2,1,2,2,0,0,0.298090381,0.458139729,2,S01
2,61,-0.25,0.25,1,1,1,1,1,1,0.252928884,0.412822473,2,S01
2,62,-8,8,1,2,1,1,1,0,0.350783523,0.590736952,2,S01
2,63,0.25,0.25,2,2,2,2,1,1,0.744087479,0.888078916,2,S01
2,64,-0.25,0.25,2,2,2,2,0,1,0.559467841,0.82336249,2,S01
2,65,-0.5,0.5,2,2,1,1,1,0,0.357478117,0.509392105,2,S01
2,66,-0.5,0.5,2,2,1,1,1,0,0.437373143,0.645336022,2,S01
2,67,-8,8,2,2,1,2,1,1,0.355832089,0.563910881,2,S01
2,68,0.5,0.5,1,1,2,2,1,0,0.349276047,0.596794326,2,S01
2,69,8,8,1,2,2,2,1,1,0.41026242,0.658582131,2,S01
2,70,-2,2,1,1,1,1,1,1,0.485125483,0.613097345,2,S01
2,71,4,4,2,1,2,1,1,1,0.318810178,0.45484254,2,S01
2,72,-8,8,2,2,1,2,1,1,0.481524927,0.833491619,2,S01
2,73,2,2,2,2,1,1,0,0,1.419856356,1.5637515,2,S01
2,74,2,2,2,2,1,1,0,0,0.516752899,0.692746659,2,S01
2,75,2,2,1,2,2,2,1,1,0.372018591,0.389007732,2,S01
2,76,-2,2,2,2,1,2,1,1,0.413475391,0.597464751,2,S01
2,77,0.5,0.5,1,2,1,2,0,1,0.234997646,0.394899687,2,S01
2,78,-2,2,2,1,1,1,1,1,0.288600888,0.400631658,2,S01
2,79,0.25,0.25,1,2,1,1,0,0,0.238539641,0.35875105,2,S01
2,80,4,4,2,2,2,2,1,1,0.366935311,0.551361761,2,S01
2,81,2,2,1,1,2,1,1,1,0.28370476,0.435572564,2,S01
2,82,0.25,0.25,1,1,1,2,0,0,0.285838591,0.4858596,2,S01
2,83,-0.5,0.5,2,2,1,2,1,1,0.317338623,0.445379309,2,S01
2,84,-8,8,2,1,1,1,1,1,0.30053935,0.484426683,2,S01
2,85,0.25,0.25,2,2,1,2,0,1,0.335145194,0.439114257,2,S01
2,86,-0.5,0.5,1,2,1,2,1,1,0.357475702,0.525544497,2,S01
2,87,0.25,0.25,1,1,1,2,0,0,0.345843022,0.601748712,2,S01
2,88,-0.25,0.25,2,2,2,2,0,1,0.327835414,0.519271597,2,S01
2,89,2,2,2,2,1,1,0,0,0.975175959,1.183146384,2,S01
2,90,-0.5,0.5,1,1,1,2,1,0,0.800461773,0.92044377,2,S01
2,91,4,4,1,2,2,2,1,1,0.412623549,0.6285612,2,S01
2,92,0.5,0.5,1,2,2,2,1,1,0.358910129,1.550904145,2,S01
2,93,-2,2,1,2,1,1,1,0,0.339487413,1.235458884,2,S01
2,94,1,1,1,2,1,2,0,1,0.317830047,0.469732866,2,S01
2,95,-1,1,2,1,1,1,1,1,0.39722731,0.572775227,2,S01
2,96,-8,8,2,1,1,1,1,1,0.377812744,0.649863582,2,S01
2,97,-8,8,1,2,1,2,1,1,0.292553108,0.604533347,2,S01
2,98,2,2,1,1,2,2,1,0,0.518616869,0.854344535,2,S01
2,99,-1,1,1,1,1,1,1,1,0.361205453,0.617310067,2,S01
2,100,-4,4,2,1,1,1,1,1,0.367180419,0.687153844,2,S01
2,101,8,8,2,2,2,2,1,1,0.462554696,0.774632435,2,S01
2,102,-4,4,1,2,1,2,1,1,1.123618888,1.45167364,2,S01
2,103,1,1,2,2,2,2,1,1,0.302328459,0.574357563,2,S01
2,104,0.25,0.25,2,1,1,2,0,0,0.411508488,0.723523742,2,S01
2,105,8,8,2,2,2,2,1,1,0.375605865,0.607788276,2,S01
2,106,-2,2,2,1,1,1,1,1,0.241439586,0.553397488,2,S01
2,107,1,1,2,1,1,2,0,0,0.342004603,0.582105037,2,S01
2,108,8,8,1,2,2,2,1,1,0.383409785,0.647445402,2,S01
2,109,-0.25,0.25,1,2,1,1,1,0,0.861886142,1.077882353,2,S01
2,110,-1,1,2,1,2,2,0,0,0.337547677,0.60895586,2,S01
2,111,-0.25,0.25,1,2,1,2,1,1,0.290868441,0.442750734,2,S01
2,112,-4,4,2,2,1,2,1,1,0.353385534,0.609372726,2,S01
2,113,0.5,0.5,2,1,2,1,1,1,0.42731797,0.659155358,2,S01
2,114,-0.25,0.25,1,1,1,2,1,0,0.301876881,0.542414404,2,S01
2,115,-2,2,1,2,1,2,1,1,0.430306359,0.614328319,2,S01
2,116,0.5,0.5,2,2,2,2,1,1,0.340320238,0.564255602,2,S01
2,117,0.25,0.25,2,2,1,1,0,0,0.4851771,0.661129506,2,S01
2,118,8,8,1,1,2,1,1,1,0.3999721,0.647871927,2,S01
2,119,1,1,1,2,1,2,0,1,0.414458843,0.638360398,2,S01
2,120,4,4,1,2,2,2,1,1,2.052976396,2.268935781,2,S01
2,121,-1,1,1,2,2,2,0,1,0.467822712,0.739818913,2,S01
2,122,4,4,1,1,2,1,1,1,0.396430708,0.716141215,2,S01
2,123,0.5,0.5,1,1,2,2,1,0,0.500041165,0.772555052,2,S01
2,124,-4,4,2,1,1,1,1,1,0.321253412,0.641154089,2,S01
2,125,-4,4,1,1,1,1,1,1,0.367685427,0.655664075,2,S01
2,126,1,1,2,2,2,2,1,1,0.362426165,0.658433617,2,S01
2,127,2,2,1,1,2,1,1,1,1.037144879,1.189203456,2,S01
2,128,0.5,0.5,2,2,2,2,1,1,0.935061821,1.230563662,2,S01
2,129,4,4,2,1,2,1,1,1,0.584675655,0.856797127,2,S01
2,130,-0.25,0.25,2,1,2,2,0,0,0.467492782,0.723489633,2,S01
2,131,-1,1,1,1,2,2,0,0,0.343810616,0.656265677,2,S01
2,132,-1,1,2,2,2,1,0,0,0.330375243,0.674340599,2,S01
2,133,8,8,2,1,2,2,1,0,0.39755724,0.701553954,2,S01
2,134,-8,8,1,1,2,1,0,1,0.489174598,0.857122831,2,S01
2,135,1,1,1,1,2,1,1,1,0.347873315,0.643857223,2,S01
2,136,-4,4,2,2,1,2,1,1,0.466432356,0.786450758,2,S01
2,137,-1,1,1,1,1,2,1,0,0.371863436,0.667851267,2,S01
2,138,-0.5,0.5,1,2,1,1,1,0,0.371322206,0.64268994,2,S01
2,139,-4,4,2,2,1,2,1,1,0.753391632,1.049270191,2,S01
2,140,0.25,0.25,2,1,1,2,0,0,0.431796327,0.711778167,2,S01
2,141,2,2,1,2,1,1,0,0,0.735704294,0.999632752,2,S01
2,142,2,2,2,1,1,2,0,0,0.42915598,0.645138004,2,S01
2,143,-0.5,0.5,2,2,1,2,1,1,0.363785731,0.595659945,2,S01
2,144,-1,1,2,2,1,2,1,1,0.369776394,0.601199633,2,S01
2,145,0.5,0.5,1,1,1,1,0,1,0.334911858,0.598996678,2,S01
2,146,2,2,1,1,1,2,0,0,0.532429564,0.828325932,2,S01
2,147,-8,8,2,1,1,1,1,1,0.822681802,1.150586833,2,S01
2,148,2,2,1,2,2,2,1,1,0.883261875,1.139202581,2,S01
2,149,2,2,2,1,2,1,1,1,0.459667127,0.70764423,2,S01
2,150,-0.5,0.5,1,1,1,1,1,1,0.415321551,0.583265679,2,S01
2,151,-4,4,1,1,1,1,1,1,0.600653271,0.752590502,2,S01
2,152,-8,8,2,2,1,2,1,1,0.493356532,0.645301912,2,S01
2,153,0.5,0.5,1,2,1,2,0,1,0.467810034,0.595813893,2,S01
2,154,-1,1,1,2,1,1,1,0,0.705294269,0.865344221,2,S01
2,155,0.25,0.25,2,2,1,1,0,0,0.40033131,0.576309977,2,S01
2,156,-8,8,1,2,1,2,1,1,0.501419446,0.717374906,2,S01
2,157,-4,4,2,1,1,1,1,1,0.421298932,0.573362641,2,S01
2,158,-0.25,0.25,2,2,1,1,1,0,0.490425798,0.698370565,2,S01
2,159,1,1,2,2,1,2,0,1,0.41408303,0.574045745,2,S01
2,160,4,4,2,1,1,2,0,0,0.467178548,0.643129444,2,S01
2,161,-2,2,1,1,1,1,1,1,0.43363977,0.569609346,2,S01
2,162,1,1,2,1,1,2,0,0,0.31930945,0.542738297,2,S01
2,163,-0.5,0.5,2,1,1,2,1,0,0.455172168,0.535139942,2,S01
2,164,2,2,1,2,1,2,0,1,0.255472939,0.407736175,2,S01
2,165,1,1,2,2,2,2,1,1,0.201293149,0.433293842,2,S01
2,166,8,8,2,1,2,1,1,1,0.291747752,0.779648702,2,S01
2,167,-4,4,1,2,1,2,1,1,0.413483239,0.540866177,2,S01
2,168,2,2,2,2,2,2,1,1,0.421328514,0.589302224,2,S01
2,169,-2,2,2,2,1,1,1,0,0.230627052,0.422562508,2,S01
2,170,1,1,1,2,2,1,1,0,0.388746323,0.556724259,2,S01
2,171,-0.25,0.25,2,1,2,2,0,0,0.293609005,0.333520597,2,S01
2,172,0.5,0.5,2,1,1,2,0,0,0.181893374,0.317912152,2,S01
2,173,1,1,1,1,1,1,0,1,0.029900904,0.19778466,2,S01
2,174,2,2,2,1,2,2,1,0,0.187466266,0.315417904,2,S01
2,175,-0.5,0.5,2,1,1,2,1,0,0.067328813,0.291322133,2,S01
2,176,0.5,0.5,1,2,1,2,0,1,0.266743088,0.426778852,2,S01
2,177,-1,1,2,1,2,1,0,1,0.029025517,0.260991497,2,S01
2,178,-2,2,1,1,2,1,0,1,0.479819131,0.647825441,2,S01
2,179,8,8,1,1,2,1,1,1,0.358817157,0.550281715,2,S01
2,180,-0.25,0.25,1,2,1,2,1,1,0.402995504,0.610880202,2,S01
2,181,-2,2,1,2,1,2,1,1,0.228715992,0.372766593,2,S01
2,182,0.25,0.25,1,1,2,1,1,1,0.129806664,0.393886955,2,S01
2,183,1,1,2,1,1,2,0,0,0.223489934,0.447364021,2,S01
2,184,-4,4,2,1,1,1,1,1,0.309887272,0.517914144,2,S01
2,185,8,8,1,2,2,2,1,1,0.318381239,0.4859408,2,S01
2,186,-0.25,0.25,1,1,2,2,0,0,0.101267551,0.293165878,2,S01
2,187,4,4,1,2,2,2,1,1,0.748793437,0.908622127,2,S01
2,188,1,1,1,2,1,1,0,0,0.588650514,0.804536245,2,S01
2,189,-8,8,1,1,1,1,1,1,0.286371973,0.390560486,2,S01
2,190,0.5,0.5,1,1,2,2,1,0,0.055715753,0.239804424,2,S01
2,191,-8,8,2,1,1,1,1,1,0.000706459,0.110282826,2,S01
2,192,-8,8,1,2,1,1,1,0,0.086196413,0.294190986,2,S01
3,1,-1,1,1,1,2,1,0,1,0.205118286,0.468528153,2,S01
3,2,-0.5,0.5,2,2,1,1,1,0,0.259653363,0.364174523,2,S01
3,3,-1,1,1,1,1,1,1,1,0.268375835,0.364815366,2,S01
3,4,4,4,2,1,2,1,1,1,0.317956827,0.477232212,2,S01
3,5,-2,2,1,2,2,1,0,0,0.520453369,0.648430665,2,S01
3,6,-8,8,2,2,1,2,1,1,0.343035446,0.486925459,2,S01
3,7,-2,2,1,2,2,1,0,0,0.566439842,0.678404204,2,S01
3,8,2,2,1,1,2,1,1,1,0.209679051,0.313767046,2,S01
3,9,-8,8,1,1,1,1,1,1,0.241486676,0.345540259,2,S01
3,10,2,2,1,2,2,1,1,0,0.470208291,0.542130055,2,S01
3,11,-2,2,1,2,2,1,0,0,0.25459393,0.334818282,2,S01
3,12,0.25,0.25,2,2,2,2,1,1,0.231027013,0.359054719,2,S01
3,13,8,8,1,1,2,1,1,1,0.352106866,0.487770358,2,S01
3,14,-8,8,2,1,1,1,1,1,0.327876768,0.495287816,2,S01
3,15,0.5,0.5,1,2,2,2,1,1,0.17489813,0.326803061,2,S01
3,16,-2,2,2,1,1,1,1,1,0.282877671,0.418808005,2,S01
3,17,0.5,0.5,1,1,1,1,0,1,0.352997345,0.48892134,2,S01
3,18,4,4,1,1,2,1,1,1,0.368339854,0.496324696,2,S01
3,19,2,2,2,2,2,2,1,1,0.695793306,0.792385275,2,S01
3,20,4,4,1,2,2,2,1,1,0.341351987,0.517457132,2,S01
3,21,-1,1,1,2,2,2,0,1,0.293275755,0.381243354,2,S01
3,22,-4,4,1,1,1,1,1,1,0.39063414,0.526718722,2,S01
3,23,0.25,0.25,1,1,2,2,1,0,0.138830692,0.27479906,2,S01
3,24,-8,8,2,2,1,2,1,1,0.398109639,0.565953248,2,S01
3,25,2,2,2,1,1,1,0,1,0.302747739,0.462832706,2,S01
3,26,4,4,2,1,2,1,1,1,0.477886941,0.766067833,2,S01
3,27,-1,1,2,1,2,2,0,0,0.294780816,0.422651556,2,S01
3,28,-4,4,2,2,1,2,1,1,0.316766603,0.444620741,2,S01
3,29,-2,2,2,1,1,2,1,0,0.363179299,0.475146981,2,S01
3,30,-1,1,2,1,2,2,0,0,0.206379145,0.350493438,2,S01
3,31,4,4,2,2,2,2,1,1,0.379571668,0.467375963,2,S01
3,32,1,1,2,1,1,1,0,1,0.873961647,1.002006257,2,S01
3,33,4,4,1,1,2,1,1,1,0.343581506,0.479535083,2,S01
3,34,-2,2,1,1,1,1,1,1,0.442846423,0.530733125,2,S01
3,35,0.25,0.25,1,1,2,1,1,1,0.262887463,0.326882148,2,S01
3,36,8,8,1,1,2,1,1,1,0.395121854,0.531157234,2,S01
3,37,8,8,2,1,2,1,1,1,0.375299479,0.511332143,2,S01
3,38,-0.5,0.5,1,1,1,2,1,0,0.159093477,0.335869954,2,S01
3,39,8,8,1,1,2,1,1,1,0.000733324,0.135611684,2,S01
3,40,-0.25,0.25,2,2,1,2,1,1,0.279970784,0.367867749,2,S01
3,41,-0.25,0.25,1,2,1,2,1,1,0.229058903,0.357105625,2,S01
3,42,-0.25,0.25,2,2,1,1,1,0,0.229852788,0.373841206,2,S01
3,43,-8,8,1,2,1,2,1,1,0.851022594,1.018905142,2,S01
3,44,8,8,2,1,2,1,1,1,0.265130868,0.585093425,2,S01
3,45,-2,2,1,1,2,2,0,0,0.250322345,0.338309867,2,S01
3,46,-8,8,1,1,1,1,1,1,0.466786435,0.602800685,2,S01
3,47,-4,4,2,2,1,2,1,1,0.348532572,0.444542258,2,S01
3,48,2,2,2,2,2,1,1,0,0.179031464,0.339009271,2,S01
3,49,-8,8,1,1,1,1,1,1,0.379500429,0.467481915,2,S01
3,50,1,1,1,1,1,2,0,0,0.338480417,0.434416752,2,S01
3,51,4,4,2,1,1,2,0,0,0.332674491,0.45272833,2,S01
3,52,-1,1,2,2,1,1,1,0,0.335552098,0.447474803,2,S01
3,53,-4,4,1,2,1,2,1,1,0.318408708,0.445885825,2,S01
3,54,-4,4,2,2,1,2,1,1,0.317076309,0.468494646,2,S01
3,55,0.5,0.5,1,1,1,2,0,0,0.371381671,0.46746984,2,S01
3,56,0.5,0.5,2,1,1,1,0,1,0.338466833,0.498465771,2,S01
3,57,0.25,0.25,2,2,1,1,0,0,0.214149258,0.318181409,2,S01
3,58,4,4,2,2,2,2,1,1,0.406082298,0.541983654,2,S01
3,59,-0.5,0.5,1,1,1,1,1,1,0.446343743,0.574310172,2,S01
3,60,1,1,2,2,1,1,0,0,0.499453146,0.635492753,2,S01
3,61,-4,4,2,1,1,1,1,1,0.445736708,0.557724614,2,S01
3,62,-4,4,1,2,1,2,1,1,0.542629629,0.702655431,2,S01
3,63,-4,4,1,1,1,1,1,1,0.418216062,0.642281225,2,S01
3,64,-8,8,1,2,1,2,1,1,0.432705824,0.608729769,2,S01
3,65,-1,1,1,2,2,2,0,1,0.562578482,0.746496,2,S01
3,66,1,1,2,2,1,2,0,1,0.439137802,0.631128196,2,S01
3,67,-0.25,0.25,2,2,1,2,1,1,0.417436666,0.58539649,2,S01
3,68,-1,1,1,1,1,1,1,1,0.386700635,0.515040461,2,S01
3,69,-0.5,0.5,2,1,1,2,1,0,0.410704038,0.57065498,2,S01
3,70,-2,2,2,2,1,2,1,1,0.375822598,0.519861427,2,S01
3,71,4,4,2,2,2,2,1,1,0.423741261,0.599740756,2,S01
3,72,0.25,0.25,2,2,1,2,0,1,0.373289109,0.67720583,2,S01
3,73,-8,8,2,2,1,2,1,1,0.77653474,1.000720042,2,S01
3,74,8,8,1,2,2,2,1,1,0.854012794,1.04603126,2,S01
3,75,1,1,2,1,2,1,1,1,0.644508329,0.852461247,2,S01
3,76,1,1,2,2,2,1,1,0,0.359309486,0.471300411,2,S01
3,77,-0.25,0.25,1,2,2,1,0,0,0.558205775,0.734276207,2,S01
3,78,0.25,0.25,2,1,2,2,1,0,0.334768778,0.446598511,2,S01
3,79,0.5,0.5,1,1,2,1,1,1,0.41319406,0.565167815,2,S01
3,80,-1,1,2,2,2,1,0,0,0.245905265,0.350182827,2,S01
3,81,8,8,2,2,2,2,1,1,0.418612401,0.554700606,2,S01
3,82,2,2,1,2,2,1,1,0,0.855171021,1.095221648,2,S01
3,83,4,4,2,2,2,2,1,1,0.494626144,0.694603686,2,S01
3,84,0.25,0.25,2,2,2,1,1,0,0.294138161,0.446209115,2,S01
3,85,-0.25,0.25,1,1,2,2,0,0,0.508625991,0.676662185,2,S01
3,86,8,8,1,2,2,2,1,1,0.503790536,0.703828449,2,S01
3,87,0.5,0.5,2,2,2,1,1,0,0.259497906,0.37154075,2,S01
3,88,-2,2,2,1,1,1,1,1,0.448591676,0.624623168,2,S01
3,89,-1,1,2,2,1,1,1,0,0.326721258,0.470651418,2,S01
3,90,1,1,1,1,1,2,0,0,0.341680408,0.469551449,2,S01
3,91,4,4,1,1,2,1,1,1,0.356671252,0.540687478,2,S01
3,92,1,1,1,2,2,1,1,0,0.396910662,0.548983728,2,S01
3,93,0.25,0.25,1,1,2,1,1,1,0.313712409,0.489627687,2,S01
3,94,2,2,1,1,2,1,1,1,0.377065044,0.593234823,2,S01
3,95,0.25,0.25,1,2,2,1,1,0,0.382573036,0.542529714,2,S01
3,96,2,2,1,2,2,1,1,0,0.415002186,0.567039331,2,S01
3,97,-0.5,0.5,2,1,2,2,0,0,0.292045685,0.396094137,2,S01
3,98,-0.25,0.25,2,1,2,1,0,1,0.617671692,0.761591589,2,S01
3,99,0.25,0.25,1,2,2,1,1,0,0.402515249,0.55449806,2,S01
3,100,-1,1,1,2,2,1,0,0,0.431187782,0.583241228,2,S01
3,101,4,4,1,2,2,2,1,1,0.608484661,0.744490761,2,S01
3,102,-8,8,2,1,1,1,1,1,0.373140897,0.517088262,2,S01
3,103,-0.5,0.5,1,2,1,1,1,0,0.284930603,0.420973228,2,S01
3,104,0.5,0.5,2,2,1,1,0,0,0.323014147,0.434991488,2,S01
3,105,-0.5,0.5,2,1,1,1,1,1,0.261868694,0.357263195,2,S01
3,106,-8,8,1,1,1,1,1,1,0.28617818,0.422615333,2,S01
3,107,2,2,2,1,2,1,1,1,0.284596749,0.396152396,2,S01
3,108,2,2,2,1,2,1,1,1,0.313709995,0.449738734,2,S01
3,109,8,8,1,2,2,2,1,1,0.420440148,0.532451599,2,S01
3,110,0.5,0.5,2,1,2,1,1,1,0.244882572,0.372976384,2,S01
3,111,-0.5,0.5,1,1,1,2,1,0,0.362063332,0.474063313,2,S01
3,112,-4,4,2,1,1,1,1,1,0.205720492,0.429403503,2,S01
3,113,8,8,2,1,2,1,1,1,0.127480248,0.279511357,2,S01
3,114,0.25,0.25,1,2,1,1,0,0,0.394612017,0.51456413,2,S01
3,115,-0.25,0.25,2,1,1,1,1,1,0.346566272,0.474577678,2,S01
3,116,0.25,0.25,2,1,1,2,0,0,0.25373756,0.405775611,2,S01
3,117,0.25,0.25,1,2,1,2,0,1,0.375676801,0.527615541,2,S01
3,118,-0.5,0.5,2,1,1,2,1,0,0.435689684,0.547728605,2,S01
3,119,2,2,2,2,2,2,1,1,0.432332728,0.592382981,2,S01
3,120,8,8,2,2,2,2,1,1,0.486045846,0.622080924,2,S01
3,121,-1,1,2,1,1,2,1,0,0.316030675,0.516051382,2,S01
3,122,-8,8,2,1,1,1,1,1,0.459901369,0.563867111,2,S01
3,123,-4,4,1,1,1,1,1,1,0.420825016,0.564830942,2,S01
3,124,-0.25,0.25,1,1,2,2,0,0,0.125628655,0.317627802,2,S01
3,125,-1,1,1,1,1,2,1,0,0.197584528,0.301529443,2,S01
3,126,4,4,1,1,2,1,1,1,0.225197542,0.425199534,2,S01
3,127,-2,2,2,2,1,2,1,1,0.343133549,0.519272201,2,S01
3,128,-0.5,0.5,1,2,2,1,0,0,0.271206051,0.431267775,2,S01
3,129,-0.25,0.25,1,1,2,1,0,1,0.401612091,0.561685889,2,S01
3,130,-0.25,0.25,2,1,1,2,1,0,0.36227101,0.530324108,2,S01
3,131,0.5,0.5,2,2,1,2,0,1,0.27058845,0.414510762,2,S01
3,132,-0.25,0.25,2,1,2,1,0,1,0.3166199,0.452514917,2,S01
3,133,0.25,0.25,1,1,2,2,1,0,0.359262095,0.495308342,2,S01
3,134,-2,2,2,1,2,1,0,1,0.422716455,0.598651353,2,S01
3,135,0.5,0.5,2,2,2,2,1,1,0.428257954,0.604154214,2,S01
3,136,1,1,1,2,1,1,0,0,0.422162547,0.582119526,2,S01
3,137,0.5,0.5,1,2,1,2,0,1,0.287379271,0.455427841,2,S01
3,138,-0.25,0.25,2,2,1,1,1,0,0.298136565,0.47412459,2,S01
3,139,8,8,1,1,2,1,1,1,0.373280657,0.469291852,2,S01
3,140,1,1,2,1,1,2,0,0,0.492309388,0.628214064,2,S01
3,141,-2,2,2,2,2,1,0,0,0.614502491,0.750475689,2,S01
3,142,1,1,2,1,2,2,1,0,0.867165628,1.02736681,2,S01
3,143,-0.5,0.5,1,1,1,2,1,0,1.141376558,1.397368579,2,S01
3,144,8,8,1,2,2,2,1,1,0.410942807,0.627029877,2,S01
3,145,8,8,2,1,2,2,1,0,1.213214405,1.381258145,2,S01
3,146,0.5,0.5,1,2,1,1,0,0,0.43054392,0.598556268,2,S01
3,147,-1,1,1,2,1,2,1,1,0.436061875,0.556032703,2,S01
3,148,1,1,2,2,1,2,0,1,0.356985486,0.508936602,2,S01
3,149,-0.5,0.5,2,2,1,1,1,0,0.300851471,0.420935496,2,S01
3,150,-2,2,1,1,1,2,1,0,0.395033712,0.498908294,2,S01
3,151,-4,4,1,2,1,2,1,1,0.438787949,0.574620179,2,S01
3,152,-0.25,0.25,1,1,1,1,1,1,0.675762348,0.819702771,2,S01
3,153,0.25,0.25,2,1,2,2,1,0,0.306320826,0.409773411,2,S01
3,154,0.5,0.5,2,1,1,2,0,0,0.651564247,0.827476807,2,S01
3,155,-4,4,1,1,1,1,1,1,0.485769345,0.653914207,2,S01
3,156,-8,8,1,2,1,2,1,1,0.440507631,0.640458006,2,S01
3,157,1,1,1,1,1,2,0,0,0.303009752,0.47902917,2,S01
3,158,4,4,1,2,2,2,1,1,0.634241252,0.834261657,2,S01
3,159,-2,2,2,2,1,2,1,1,0.652464386,0.788547459,2,S01
3,160,8,8,2,2,2,2,1,1,0.365782216,0.517879129,2,S01
3,161,-4,4,1,2,1,2,1,1,0.365807572,0.509724752,2,S01
3,162,-0.25,0.25,1,2,1,2,1,1,0.333631983,0.565616979,2,S01
3,163,-0.5,0.5,1,2,1,2,1,1,0.326546483,0.470457625,2,S01
3,164,-0.5,0.5,1,2,1,2,1,1,0.349506968,0.485446055,2,S01
3,165,2,2,2,2,2,2,1,1,0.301426208,0.444924711,2,S01
3,166,1,1,1,2,2,2,1,1,0.379488053,0.515556638,2,S01
3,167,8,8,2,2,2,2,1,1,0.387441092,0.523398592,2,S01
3,168,-4,4,2,1,1,1,1,1,1.175509089,1.3515273,2,S01
3,169,0.5,0.5,2,1,1,2,0,0,0.34017263,0.476124697,2,S01
3,170,0.25,0.25,2,1,1,2,0,0,0.295323254,0.375319704,2,S01
3,171,-4,4,2,1,1,1,1,1,0.34045064,0.484401025,2,S01
3,172,2,2,1,1,2,2,1,0,0.331857061,0.53984922,2,S01
3,173,-1,1,2,1,1,1,1,1,0.452303617,0.572255126,2,S01
3,174,-8,8,2,2,1,2,1,1,0.433405831,0.601384068,2,S01
3,175,0.5,0.5,1,2,1,2,0,1,0.46289187,0.614879813,2,S01
3,176,-4,4,2,2,1,2,1,1,0.532905291,0.652901777,2,S01
3,177,-8,8,1,2,1,2,1,1,0.983735731,1.199670363,2,S01
3,178,2,2,2,1,1,2,0,0,0.333270357,0.429258913,2,S01
3,179,-0.5,0.5,2,2,1,2,1,1,0.359491205,0.447458805,2,S01
3,180,4,4,1,2,2,2,1,1,0.38995496,0.54197973,2,S01
3,181,1,1,1,2,1,2,0,1,0.238399579,0.366422455,2,S01
3,182,1,1,1,1,1,2,0,0,0.27921131,0.359291979,2,S01
3,183,2,2,1,2,1,2,0,1,0.200174767,0.296046504,2,S01
3,184,-2,2,1,2,1,2,1,1,0.059760039,0.299826665,2,S01
3,185,-1,1,2,2,1,2,1,1,1.399474337,1.559377284,2,S01
3,186,4,4,2,1,2,1,1,1,0.112842275,0.408297328,2,S01
3,187,0.5,0.5,1,1,1,2,0,0,0.298085551,0.434162588,2,S01
3,188,-2,2,1,1,1,2,1,0,0.564430076,0.724336946,2,S01
3,189,-0.25,0.25,1,2,1,2,1,1,0.513028883,0.752580239,2,S01
3,190,2,2,1,1,2,1,1,1,0.501133889,0.70139578,2,S01
3,191,-0.5,0.5,2,2,1,2,1,1,0.496943202,0.656823509,2,S01
3,192,-8,8,2,1,1,1,1,1,0.33960544,0.531530934,2,S01
1,1,-0.25,0.25,2,2,1,1,1,0,2.155392515,3.715401957,1,S01
1,2,8,8,2,2,2,2,1,1,1.171671736,4.387201021,1,S01
1,3,-0.25,0.25,1,2,2,2,0,1,1.644579647,2.244536119,1,S01
1,4,-8,8,2,1,1,2,1,0,0.443021876,1.451006332,1,S01
1,5,2,2,1,2,2,2,1,1,1.773612927,2.42957952,1,S01
1,6,-8,8,2,1,1,1,1,1,0.40796948,0.879822395,1,S01
1,7,-4,4,1,1,1,1,1,1,0.643096617,0.915075829,1,S01
1,8,-0.5,0.5,2,1,1,2,1,0,0.434920602,1.834971374,1,S01
1,9,-1,1,2,1,2,2,0,0,0.661209024,1.813139468,1,S01
1,10,-8,8,1,1,1,1,1,1,0.44692732,0.934945354,1,S01
1,11,-1,1,2,2,2,2,0,1,0.559344807,1.727261067,1,S01
1,12,8,8,2,1,2,2,1,0,0.523464715,0.787431399,1,S01
1,13,0.25,0.25,1,1,2,2,1,0,0.436785181,1.828641103,1,S01
1,14,4,4,2,1,2,1,1,1,0.495040524,0.823021104,1,S01
1,15,-2,2,1,2,1,1,1,0,0.8929478,1.293088829,1,S01
1,16,4,4,1,2,2,2,1,1,3.132358005,3.356289215,1,S01
1,17,0.5,0.5,1,1,2,2,1,0,0.957220992,1.717189261,1,S01
1,18,0.5,0.5,2,2,2,2,1,1,1.509082673,2.141563176,1,S01
1,19,0.5,0.5,2,1,1,1,0,1,0.741449315,2.517391325,1,S01
1,20,0.25,0.25,1,2,2,2,1,1,0.901391382,1.197404558,1,S01
1,21,8,8,2,1,2,1,1,1,0.426912601,0.770901334,1,S01
1,22,-2,2,2,2,1,1,1,0,0.295922071,0.615999999,1,S01
1,23,0.5,0.5,1,1,2,2,1,0,0.749981945,0.966003561,1,S01
1,24,-1,1,2,1,1,1,1,1,0.63084811,0.935333242,1,S01
1,25,-1,1,1,2,1,2,1,1,1.49517787,1.823233914,1,S01
1,26,4,4,1,1,2,1,1,1,0.525296391,0.749286162,1,S01
1,27,1,1,1,1,1,2,0,0,0.473815052,0.777784006,1,S01
1,28,-1,1,2,1,2,2,0,0,0.374950401,0.718903212,1,S01
1,29,1,1,1,1,1,1,0,1,0.334816521,0.558759805,1,S01
1,30,2,2,2,2,2,2,1,1,0.351634861,0.607752927,1,S01
1,31,-8,8,1,1,1,1,1,1,0.313428045,0.561460532,1,S01
1,32,-0.5,0.5,1,2,1,2,1,1,0.498278257,0.882369174,1,S01
1,33,-0.25,0.25,2,2,1,2,1,1,0.333527888,0.789487055,1,S01
1,34,1,1,1,2,1,1,0,0,0.398889882,1.383521066,1,S01
1,35,8,8,1,2,2,2,1,1,0.272124162,0.544131749,1,S01
1,36,8,8,2,2,2,2,1,1,0.096567565,0.408563537,1,S01
1,37,0.5,0.5,2,2,2,2,1,1,0.442328206,0.642279486,1,S01
1,38,-0.5,0.5,2,2,1,2,1,1,0.305441778,0.528666942,1,S01
1,39,2,2,2,2,2,2,1,1,0.261014265,0.4769254,1,S01
1,40,1,1,1,1,1,2,0,0,0.38418123,1.400081317,1,S01
1,41,8,8,1,1,2,1,1,1,0.525833699,1.053817478,1,S01
1,42,-4,4,2,1,1,1,1,1,0.360540287,0.624465919,1,S01
1,43,8,8,1,2,2,2,1,1,0.286578046,0.574533112,1,S01
1,44,-0.5,0.5,2,2,1,1,1,0,0.339533662,0.85156966,1,S01
1,45,0.5,0.5,1,1,1,1,0,1,0.310282077,0.558310036,1,S01
1,46,1,1,2,2,1,1,0,0,0.295162596,0.47157979,1,S01
1,47,8,8,1,1,2,2,1,0,0.294136277,0.550031269,1,S01
1,48,1,1,1,2,2,2,1,1,0.306756371,0.530862659,1,S01
1,49,-0.5,0.5,1,2,2,2,0,1,0.246954608,0.430908602,1,S01
1,50,1,1,2,2,2,2,1,1,0.28114369,0.777162178,1,S01
1,51,1,1,2,1,1,1,0,1,0.286352256,0.510198342,1,S01
1,52,8,8,1,2,2,2,1,1,0.526174497,0.854157794,1,S01
1,53,-0.25,0.25,2,1,2,1,0,1,0.281308504,0.544813647,1,S01
1,54,-2,2,2,2,1,1,1,0,0.293479131,0.541512524,1,S01
1,55,1,1,2,2,1,2,0,1,0.653953858,0.845956,1,S01
1,56,-1,1,1,2,1,1,1,0,0.252437563,0.476378433,1,S01
1,57,-1,1,2,2,1,1,1,0,0.33560739,0.711652574,1,S01
1,58,8,8,2,2,2,2,1,1,0.383493898,0.663551747,1,S01
1,59,4,4,2,1,2,2,1,0,0.310988426,0.494535213,1,S01
1,60,-4,4,1,2,1,1,1,0,0.278036661,0.437906887,1,S01
1,61,0.25,0.25,2,2,2,2,1,1,0.141101333,0.412537804,1,S01
1,62,0.5,0.5,2,2,2,2,1,1,0.246350589,0.430276511,1,S01
1,63,-4,4,1,1,1,1,1,1,0.136568024,0.409174197,1,S01
1,64,0.5,0.5,1,2,2,1,1,0,0.738386358,1.098319249,1,S01
1,65,4,4,1,2,2,2,1,1,0.717946321,0.902015022,1,S01
1,66,0.5,0.5,2,1,1,1,0,1,0.321680853,0.569680135,1,S01
1,67,-2,2,2,1,1,1,1,1,0.246829639,0.478789979,1,S01
1,68,4,4,2,2,2,2,1,1,0.074673175,0.385863487,1,S01
1,69,-4,4,2,2,1,1,1,0,0.275378195,0.483313327,1,S01
1,70,4,4,2,1,2,2,1,0,0.22250559,0.406943765,1,S01
1,71,-0.25,0.25,2,1,1,1,1,1,0.280393873,0.568333545,1,S01
1,72,0.25,0.25,1,2,1,2,0,1,0.293394309,0.613928647,1,S01
1,73,-2,2,1,1,1,1,1,1,0.567218782,0.751271484,1,S01
1,74,-8,8,2,1,1,1,1,1,0.163920316,0.443770183,1,S01
1,75,1,1,2,1,1,1,0,1,0.058338411,0.362358682,1,S01
1,76,2,2,2,1,1,1,0,1,0.435180804,0.691202274,1,S01
1,77,0.5,0.5,1,2,1,1,0,0,0.09058111,0.40307696,1,S01
1,78,0.25,0.25,2,2,1,1,0,0,0.288195705,0.496210829,1,S01
1,79,4,4,2,1,2,1,1,1,0.56760818,0.89558725,1,S01
1,80,0.25,0.25,1,1,1,1,0,1,0.495075841,0.759085994,1,S01
1,81,0.5,0.5,2,2,1,1,0,0,0.407945633,0.655977517,1,S01
1,82,2,2,1,2,1,1,0,0,0.258740969,0.474714891,1,S01
1,83,-4,4,2,2,1,2,1,1,0.309958787,0.52596863,1,S01
1,84,-4,4,2,1,1,1,1,1,0.274028586,0.498720479,1,S01
1,85,-1,1,2,2,1,1,1,0,0.333818879,0.733890178,1,S01
1,86,2,2,1,1,1,1,0,1,0.366197414,1.678091962,1,S01
1,87,0.5,0.5,2,1,2,2,1,0,0.297351371,0.529307183,1,S01
1,88,-4,4,1,2,1,1,1,0,0.278143519,0.493417432,1,S01
1,89,-4,4,1,2,1,2,1,1,0.404949991,0.852923797,1,S01
1,90,2,2,2,2,2,2,1,1,0.29565704,0.511704917,1,S01
1,91,-2,2,2,1,1,1,1,1,0.000722706,0.407467188,1,S01
1,92,2,2,1,1,2,2,1,0,0.209302607,0.449247403,1,S01
1,93,-1,1,2,2,1,1,1,0,0.24775574,0.391718331,1,S01
1,94,0.25,0.25,2,2,1,2,0,1,0.181456777,0.325316133,1,S01
1,95,-0.5,0.5,2,2,2,2,0,1,1.105743757,1.305577313,1,S01
1,96,0.5,0.5,1,2,1,1,0,0,0.221140285,0.493145759,1,S01
1,97,-0.5,0.5,1,1,1,1,1,1,0.244642373,0.460601504,1,S01
1,98,-1,1,1,2,1,1,1,0,0.27138974,0.495447731,1,S01
1,99,-0.5,0.5,1,1,2,2,0,0,0.50289518,0.790860812,1,S01
1,100,-2,2,2,2,1,1,1,0,0.104149643,0.336124171,1,S01
1,101,-8,8,2,1,1,1,1,1,0.18460999,0.432631912,1,S01
1,102,1,1,2,1,1,1,0,1,0.034851114,0.314856439,1,S01
1,103,-0.25,0.25,1,2,2,2,0,1,0.434700245,0.99469067,1,S01
1,104,0.5,0.5,1,2,1,1,0,0,0.144380722,0.392265601,1,S01
1,105,-0.25,0.25,1,1,2,2,0,0,0.541830985,1.053906225,1,S01
1,106,-4,4,2,1,1,1,1,1,0.240709762,0.42472111,1,S01
1,107,-8,8,1,1,1,1,1,1,0.318645667,0.470763867,1,S01
1,108,-2,2,1,2,1,2,1,1,0.621625733,0.885580645,1,S01
1,109,-0.25,0.25,2,1,1,1,1,1,0.101056501,0.405047793,1,S01
1,110,-8,8,1,2,1,2,1,1,0.206803522,0.526847641,1,S01
1,111,-0.5,0.5,2,1,2,1,0,1,0.467192279,0.74702162,1,S01
1,112,4,4,1,1,2,1,1,1,0.287706694,0.567794728,1,S01
1,113,8,8,2,1,2,1,1,1,0.220744246,0.484639391,1,S01
1,114,-0.5,0.5,2,1,1,1,1,1,0.287936106,0.551883472,1,S01
1,115,2,2,2,1,1,2,0,0,0.356665029,0.564623102,1,S01
1,116,2,2,1,2,2,2,1,1,0.213359282,0.46144882,1,S01
1,117,-0.5,0.5,2,1,2,1,0,1,0.288247926,0.504284031,1,S01
1,118,-1,1,2,1,1,1,1,1,0.059846194,0.33174481,1,S01
1,119,8,8,1,1,2,2,1,0,0.055984218,0.327976712,1,S01
1,120,4,4,1,1,2,1,1,1,0.140593909,0.340230049,1,S01
1,121,-8,8,1,2,1,2,1,1,0.212486609,0.420547918,1,S01
1,122,1,1,1,1,2,1,1,1,0.378710651,0.618609263,1,S01
1,123,-0.25,0.25,1,2,2,1,0,0,0.024596985,0.256678975,1,S01
1,124,-8,8,2,2,2,2,0,1,0.443798558,0.667412817,1,S01
1,125,8,8,2,2,2,2,1,1,0.042327844,0.322378447,1,S01
1,126,0.25,0.25,1,1,2,2,1,0,0.182491548,0.358464407,1,S01
1,127,-0.25,0.25,1,1,1,1,1,1,0.015241791,0.239293141,1,S01
1,128,-2,2,2,1,2,2,0,0,0.30187985,0.453841386,1,S01
1,129,1,1,1,2,1,1,0,0,0.273034567,0.416562784,1,S01
1,130,-1,1,1,1,1,2,1,0,0.270607323,0.406557386,1,S01
1,131,-1,1,1,2,2,2,0,1,0.424443098,1.240614073,1,S01
1,132,-2,2,1,1,1,1,1,1,0.190912188,0.391031604,1,S01
1,133,-2,2,1,1,1,1,1,1,0.784322258,1.152254396,1,S01
1,134,2,2,1,1,2,2,1,0,0.116884444,0.356776113,1,S01
1,135,0.25,0.25,2,1,2,2,1,0,0.28596799,0.461745547,1,S01
1,136,-0.25,0.25,2,1,1,2,1,0,0.416432079,0.848531757,1,S01
1,137,-0.25,0.25,2,2,1,1,1,0,0.063014197,0.40695433,1,S01
1,138,0.5,0.5,1,1,1,1,0,1,0.048847381,0.304884246,1,S01
1,139,-4,4,1,1,1,1,1,1,0.012498804,0.244471521,1,S01
1,140,0.25,0.25,2,1,1,1,0,1,0.000711839,0.386960742,1,S01
1,141,-8,8,1,2,2,2,0,1,0.43629768,1.292212232,1,S01
1,142,0.25,0.25,1,1,1,2,0,0,1.363678104,1.779596364,1,S01
1,143,-8,8,2,2,1,2,1,1,0.692991087,0.981040937,1,S01
1,144,-8,8,2,2,1,2,1,1,0.318257477,0.566322565,1,S01
1,145,-4,4,2,2,1,2,1,1,0.279232926,0.527192364,1,S01
1,146,-8,8,1,1,1,1,1,1,0.275493807,0.451380033,1,S01
1,147,-8,8,1,2,1,1,1,0,0.000712141,0.358199677,1,S01
1,148,0.25,0.25,2,2,2,2,1,1,0.246953099,0.511502068,1,S01
1,149,8,8,2,1,2,1,1,1,0.246791906,0.471424333,1,S01
1,150,-2,2,1,2,1,2,1,1,0.221878026,0.533867659,1,S01
1,151,-0.25,0.25,1,1,1,2,1,0,0.222201015,0.510181739,1,S01
1,152,4,4,2,2,2,2,1,1,0.310099151,0.502117593,1,S01
1,153,-1,1,1,1,1,1,1,1,0.265851243,0.441966881,1,S01
1,154,-4,4,2,2,1,2,1,1,0.520365837,0.928371181,1,S01
1,155,1,1,2,1,1,2,0,0,0.484522269,0.764552648,1,S01
1,156,-1,1,1,1,2,1,0,1,0.213800599,0.365405942,1,S01
1,157,1,1,2,2,1,2,0,1,0.166201157,0.342151679,1,S01
1,158,-1,1,1,1,1,2,1,0,0.278582421,0.446545771,1,S01
1,159,0.25,0.25,2,1,1,2,0,0,0.245135911,0.405029379,1,S01
1,160,2,2,1,1,1,2,0,0,0.278922918,0.430802348,1,S01
1,161,8,8,1,2,2,2,1,1,0.265155761,0.585145848,1,S01
1,162,-2,2,2,1,2,2,0,0,0.858426071,1.138602549,1,S01
1,163,2,2,2,1,2,2,1,0,0.274940198,0.434917583,1,S01
1,164,-4,4,1,2,1,2,1,1,0.333154791,0.493169304,1,S01
1,165,0.25,0.25,2,1,1,1,0,1,0.108562511,0.308493566,1,S01
1,166,2,2,1,2,2,2,1,1,0.472176866,0.888252092,1,S01
1,167,8,8,1,1,2,1,1,1,0.000709726,0.359662483,1,S01
1,168,-0.5,0.5,1,2,2,2,0,1,0.192590521,0.384485201,1,S01
1,169,-0.5,0.5,2,2,1,1,1,0,0.000709726,0.353947398,1,S01
1,170,-2,2,1,1,1,1,1,1,0.598551378,0.894451055,1,S01
1,171,-2,2,1,2,2,2,0,1,0.57388623,1.32595245,1,S01
1,172,2,2,2,2,1,2,0,1,0.154499014,0.602122061,1,S01
1,173,-8,8,2,2,1,2,1,1,0.671817836,0.879598114,1,S01
1,174,-4,4,1,1,1,1,1,1,0.322777504,0.5548118,1,S01
1,175,-0.25,0.25,1,1,1,1,1,1,0.176003706,0.391468996,1,S01
1,176,-0.5,0.5,1,2,1,2,1,1,0.541003289,0.764958648,1,S01
1,177,-4,4,2,1,1,1,1,1,0.254036507,0.502014358,1,S01
1,178,4,4,1,1,2,2,1,0,0.097569735,0.441606161,1,S01
1,179,-0.25,0.25,1,2,2,1,0,0,0.000711839,0.312090209,1,S01
1,180,0.25,0.25,1,2,2,2,1,1,0.079965355,0.272010663,1,S01
1,181,-0.25,0.25,2,2,1,1,1,0,0.270976496,0.4389649,1,S01
1,182,-0.5,0.5,1,1,1,1,1,1,0.33389374,0.573483853,1,S01
1,183,0.25,0.25,1,2,1,2,0,1,0.354583716,0.658549652,1,S01
1,184,4,4,1,2,2,2,1,1,0.413242342,0.605280707,1,S01
1,185,0.5,0.5,2,1,1,1,0,1,0.391058771,0.679155107,1,S01
1,186,4,4,1,2,2,2,1,1,0.386347969,0.562287624,1,S01
1,187,-0.5,0.5,1,1,1,1,1,1,0.251151043,0.355238447,1,S01
1,188,-2,2,2,2,1,1,1,0,0.279834228,0.41584587,1,S01
1,189,2,2,2,1,2,2,1,0,0.000706707,0.293891168,1,S01
1,190,4,4,2,2,1,1,0,0,0.293800007,0.485215034,1,S01
1,191,4,4,2,2,2,2,1,1,0.316670909,0.508681202,1,S01
1,192,1,1,1,2,2,2,1,1,0.224390394,0.384508746,1,S01
2,1,2,2,1,2,2,2,1,1,0.763137838,0.923860813,1,S01
2,2,8,8,2,2,2,2,1,1,0.039351218,0.359376623,1,S01
2,3,8,8,2,2,2,2,1,1,0.280066055,0.408158745,1,S01
2,4,-4,4,1,1,1,1,1,1,0.000715763,0.217985261,1,S01
2,5,-4,4,2,1,1,1,1,1,0.04799131,0.27991422,1,S01
2,6,1,1,2,1,2,2,1,0,0.011276882,0.355227881,1,S01
2,7,-0.25,0.25,1,1,2,2,0,0,0.360389056,0.519786571,1,S01
2,8,-0.25,0.25,2,1,2,2,0,0,0.255795737,0.415791536,1,S01
2,9,-1,1,1,1,1,1,1,1,0.125747911,0.349731343,1,S01
2,10,4,4,1,1,2,1,1,1,0.378483653,0.618409131,1,S01
2,11,0.25,0.25,2,1,1,2,0,0,0.112410601,0.376474484,1,S01
2,12,-0.25,0.25,2,2,1,1,1,0,0.197599558,0.317464495,1,S01
2,13,1,1,1,2,2,2,1,1,0.237414374,0.797494451,1,S01
2,14,-0.25,0.25,1,2,1,1,1,0,0.074972316,0.275054301,1,S01
2,15,4,4,2,2,2,2,1,1,0.734675614,0.974190261,1,S01
2,16,1,1,2,2,1,2,0,1,0.099787488,0.219339699,1,S01
2,17,-1,1,2,2,1,1,1,0,0.137324783,0.30536088,1,S01
2,18,-8,8,1,1,1,1,1,1,0.501158589,0.877033224,1,S01
2,19,4,4,1,1,2,1,1,1,0.568210387,2.272210191,1,S01
2,20,8,8,1,1,2,1,1,1,0.327124868,0.47129876,1,S01
2,21,2,2,1,1,2,1,1,1,0.182187878,0.334242085,1,S01
2,22,-1,1,1,2,1,1,1,0,0.198580598,0.430513772,1,S01
2,23,-4,4,2,2,1,2,1,1,0.249465466,0.520896504,1,S01
2,24,2,2,2,1,1,2,0,0,0.084902551,0.1889486,1,S01
2,25,2,2,1,1,2,1,1,1,0.030265885,0.214397674,1,S01
2,26,8,8,2,1,2,1,1,1,0.240508423,0.432040571,1,S01
2,27,0.25,0.25,2,1,1,1,0,1,1.514432509,1.730292932,1,S01
2,28,0.25,0.25,1,1,1,2,0,0,1.215247104,1.494972908,1,S01
2,29,-0.5,0.5,2,1,1,1,1,1,0.373916536,0.574008784,1,S01
2,30,-1,1,1,1,2,2,0,0,0.562961674,0.834950848,1,S01
2,31,-1,1,1,2,1,2,1,1,1.181243363,1.413309052,1,S01
2,32,0.25,0.25,1,2,1,2,0,1,0.271051961,0.399064658,1,S01
2,33,-0.25,0.25,2,1,1,2,1,0,0.245333327,0.380673636,1,S01
2,34,-8,8,2,2,1,2,1,1,0.277905353,0.462073667,1,S01
2,35,0.25,0.25,2,1,1,1,0,1,0.188842647,0.492828808,1,S01
2,36,4,4,2,2,2,2,1,1,0.276401495,0.484434127,1,S01
2,37,0.5,0.5,1,1,2,2,1,0,0.119693538,0.295517279,1,S01
2,38,-0.25,0.25,2,2,1,1,1,0,0.263199719,0.591524116,1,S01
2,39,-0.5,0.5,2,2,1,1,1,0,0.212646292,0.316629555,1,S01
2,40,0.5,0.5,1,2,2,1,1,0,0.348490403,0.580552772,1,S01
2,41,-8,8,1,2,1,2,1,1,0.461943566,0.685855457,1,S01
2,42,-2,2,2,1,1,1,1,1,0.25322813,0.437352976,1,S01
2,43,-0.25,0.25,2,2,1,2,1,1,0.231508214,0.439629894,1,S01
2,44,1,1,1,1,2,2,1,0,0.189985181,0.373985662,1,S01
2,45,4,4,2,1,2,2,1,0,0.427244947,0.627349873,1,S01
2,46,-4,4,2,1,1,1,1,1,0.285359443,0.485396451,1,S01
2,47,-0.5,0.5,2,2,1,1,1,0,0.204957054,0.436870607,1,S01
2,48,0.25,0.25,1,1,1,1,0,1,0.279812192,0.455077798,1,S01
2,49,4,4,1,1,2,1,1,1,0.298450437,0.465939265,1,S01
2,50,-0.25,0.25,1,2,2,1,0,0,0.336816936,0.480808506,1,S01
2,51,8,8,1,2,2,2,1,1,0.268031868,0.50016457,1,S01
2,52,8,8,2,2,2,2,1,1,0.239864861,0.375734026,1,S01
2,53,-4,4,1,2,1,1,1,0,0.148924294,0.33289972,1,S01
2,54,-2,2,1,1,1,2,1,0,0.453283853,0.645214455,1,S01
2,55,-0.25,0.25,2,1,1,1,1,1,0.251779814,0.379686257,1,S01
2,56,-2,2,2,1,1,1,1,1,0.205154771,0.31703646,1,S01
2,57,2,2,2,2,2,2,1,1,0.324972618,0.476999959,1,S01
2,58,-8,8,2,1,1,1,1,1,0.248324139,0.368172172,1,S01
2,59,-0.25,0.25,1,2,1,1,1,0,0.301345862,0.381362477,1,S01
2,60,4,4,2,2,2,2,1,1,0.263328311,0.327190975,1,S01
2,61,-8,8,1,2,1,1,1,0,0.282889638,0.458799711,1,S01
2,62,0.25,0.25,2,2,2,2,1,1,0.157538728,0.285408646,1,S01
2,63,8,8,1,1,2,1,1,1,0.000705802,0.381380286,1,S01
2,64,0.25,0.25,1,2,2,2,1,1,0.030326861,0.222235427,1,S01
2,65,-0.25,0.25,1,2,1,1,1,0,0.276385798,0.428384765,1,S01
2,66,-2,2,1,2,1,1,1,0,0.27068641,0.462576563,1,S01
2,67,4,4,2,1,2,2,1,0,0.174154521,0.413946275,1,S01
2,68,0.5,0.5,2,1,2,1,1,1,0.37545209,0.511945498,1,S01
2,69,4,4,2,2,2,2,1,1,0.40732139,0.559346316,1,S01
2,70,2,2,2,2,1,1,0,0,0.240144985,0.408234512,1,S01
2,71,0.5,0.5,1,2,2,2,1,1,0.378067391,0.545933542,1,S01
2,72,-1,1,1,1,2,2,0,0,0.094605486,0.342768376,1,S01
2,73,8,8,1,2,2,2,1,1,0.271001249,0.439087455,1,S01
2,74,1,1,1,2,2,2,1,1,0.061421592,0.245525309,1,S01
2,75,-1,1,2,2,1,1,1,0,0.02795365,0.220034577,1,S01
2,76,-1,1,2,1,2,2,0,0,0.313971088,0.442068004,1,S01
2,77,-4,4,2,2,1,1,1,0,0.000709424,0.232539966,1,S01
2,78,8,8,2,1,2,1,1,1,0.098867424,0.282870923,1,S01
2,79,0.5,0.5,2,2,1,2,0,1,1.022175478,1.214626483,1,S01
2,80,-4,4,1,2,1,2,1,1,0.276213135,0.436063739,1,S01
2,81,-8,8,1,1,1,1,1,1,0.278370215,0.430310621,1,S01
2,82,-8,8,2,1,1,1,1,1,0.153104429,0.336594467,1,S01
2,83,2,2,1,2,1,2,0,1,0.377181738,0.553072492,1,S01
2,84,0.5,0.5,2,2,1,2,0,1,0.925581708,1.181627629,1,S01
2,85,0.5,0.5,2,1,2,1,1,1,0.334987675,0.487003243,1,S01
2,86,-0.5,0.5,1,1,2,2,0,0,0.30244523,0.598461726,1,S01
2,87,-2,2,1,2,1,2,1,1,0.227996394,0.427999291,1,S01
2,88,2,2,1,1,2,1,1,1,0.254898614,0.398179911,1,S01
2,89,-2,2,2,1,1,1,1,1,0.000740515,0.227874443,1,S01
2,90,-0.25,0.25,2,1,2,2,0,0,0.310683549,0.454080156,1,S01
2,91,-2,2,2,2,1,1,1,0,0.272799721,0.408836719,1,S01
2,92,4,4,2,1,2,2,1,0,0.515298239,0.754639922,1,S01
2,93,-1,1,2,1,1,1,1,1,0.247292991,0.399307654,1,S01
2,94,-1,1,2,2,1,2,1,1,0.212776695,0.308850665,1,S01
2,95,0.25,0.25,2,2,1,1,0,0,0.204794051,0.308787878,1,S01
2,96,8,8,1,1,2,1,1,1,0.448412161,0.616506819,1,S01
2,97,-0.5,0.5,1,2,1,1,1,0,0.086564583,0.310511188,1,S01
2,98,-1,1,2,2,1,2,1,1,0.310456853,0.470542303,1,S01
2,99,-8,8,2,1,1,1,1,1,0.293328504,0.477349511,1,S01
2,100,2,2,2,2,2,2,1,1,0.345213429,0.48867252,1,S01
2,101,0.25,0.25,2,2,1,1,0,0,0.144068299,0.231975189,1,S01
2,102,-4,4,1,2,1,2,1,1,0.290309921,0.41831809,1,S01
2,103,2,2,2,2,2,2,1,1,0.264296371,0.37642347,1,S01
2,104,-2,2,1,1,1,1,1,1,0.301563804,0.445463911,1,S01
2,105,-8,8,1,2,1,2,1,1,0.236636485,0.404524974,1,S01
2,106,4,4,1,2,2,2,1,1,0.357809978,0.493949306,1,S01
2,107,-0.25,0.25,1,1,1,1,1,1,0.045814911,0.221188884,1,S01
2,108,2,2,1,2,2,2,1,1,0.091224068,0.211176242,1,S01
2,109,0.5,0.5,2,2,2,2,1,1,0.44546542,0.596976281,1,S01
2,110,-0.25,0.25,1,1,1,1,1,1,0.2825585,0.370655259,1,S01
2,111,-8,8,1,2,1,2,1,1,0.127776097,0.295743673,1,S01
2,112,2,2,2,1,2,2,1,0,0.295158671,0.399929482,1,S01
2,113,-8,8,2,1,1,1,1,1,0.140682957,0.244749533,1,S01
2,114,-4,4,2,1,1,1,1,1,0.000708518,0.187265136,1,S01
2,115,-2,2,2,2,1,2,1,1,0.188550449,0.332546848,1,S01
2,116,0.25,0.25,1,2,1,2,0,1,0.413009911,0.556989406,1,S01
2,117,4,4,1,2,2,2,1,1,0.277883921,0.437882436,1,S01
2,118,2,2,1,1,1,2,0,0,0.040043983,0.240195094,1,S01
2,119,0.5,0.5,1,1,2,2,1,0,0.206548753,0.310590275,1,S01
2,120,1,1,1,2,1,2,0,1,0.000707613,0.198522038,1,S01
2,121,-0.5,0.5,1,2,1,2,1,1,0.000712141,0.332034292,1,S01
2,122,-4,4,2,2,1,2,1,1,0.092536549,0.316520584,1,S01
2,123,0.5,0.5,2,1,2,1,1,1,0.00070882,0.308401198,1,S01
2,124,4,4,2,1,2,1,1,1,0.240743872,0.424054908,1,S01
2,125,1,1,2,2,2,2,1,1,0.000738101,0.326269703,1,S01
2,126,-4,4,1,1,1,1,1,1,0.042336899,0.298320336,1,S01
2,127,-0.5,0.5,1,1,2,2,0,0,0.214066838,0.342033954,1,S01
2,128,0.5,0.5,1,1,2,2,1,0,0.190421065,0.342441463,1,S01
2,129,0.25,0.25,2,1,1,1,0,1,0.310689284,0.470825446,1,S01
2,130,1,1,2,1,1,2,0,0,0.221634125,0.421629174,1,S01
2,131,-0.5,0.5,1,1,1,1,1,1,0.243712045,0.403867828,1,S01
2,132,1,1,1,1,1,1,0,1,0.053560899,0.269525161,1,S01
2,133,-1,1,1,2,2,2,0,1,0.116626959,0.276656263,1,S01
2,134,1,1,2,1,2,2,1,0,0.287845247,0.919767916,1,S01
2,135,0.5,0.5,1,2,1,1,0,0,0.215840557,0.367729346,1,S01
2,136,-2,2,1,2,1,2,1,1,0.32530587,0.492856881,1,S01
2,137,-2,2,1,1,2,2,0,0,0.284276376,0.460168035,1,S01
2,138,8,8,1,1,2,1,1,1,0.271055281,0.430981048,1,S01
2,139,-8,8,2,2,1,1,1,0,0.425206498,0.601283196,1,S01
2,140,0.5,0.5,1,1,1,2,0,0,0.238943589,0.390964591,1,S01
2,141,2,2,2,1,2,1,1,1,0.208162488,0.368101235,1,S01
2,142,-0.25,0.25,2,2,1,2,1,1,0.085186599,0.221236276,1,S01
2,143,1,1,1,2,1,1,0,0,0.427298074,0.547330542,1,S01
2,144,1,1,2,2,2,2,1,1,0.327858384,0.423906998,1,S01
2,145,4,4,1,2,1,1,0,0,0.350195903,0.48588184,1,S01
2,146,8,8,2,1,2,2,1,0,0.045326505,0.301326241,1,S01
2,147,0.25,0.25,1,2,2,1,1,0,0.537082451,0.713124134,1,S01
2,148,0.25,0.25,1,1,1,1,0,1,1.321689003,1.545028872,1,S01
2,149,0.5,0.5,1,2,1,2,0,1,0.317623876,0.413504053,1,S01
2,150,1,1,1,1,1,1,0,1,0.303410573,0.407376328,1,S01
2,151,-0.5,0.5,2,2,2,2,0,1,0.185197406,0.305075624,1,S01
2,152,-4,4,1,1,1,1,1,1,0.000711235,0.140900899,1,S01
2,153,0.25,0.25,1,1,2,2,1,0,0.000713046,0.14925664,1,S01
2,154,8,8,1,2,2,2,1,1,0.202019067,0.313927017,1,S01
2,155,-2,2,2,1,1,1,1,1,0.033903882,0.217801429,1,S01
2,156,-8,8,1,1,1,1,1,1,0.000710028,0.231813996,1,S01
2,157,-4,4,1,2,1,2,1,1,0.202155507,0.346124437,1,S01
2,158,-0.25,0.25,1,1,1,1,1,1,0.174794159,0.286796591,1,S01
2,159,-0.5,0.5,2,2,1,2,1,1,0.126197378,0.28618563,1,S01
2,160,0.5,0.5,2,1,2,2,1,0,0.013801021,0.269678203,1,S01
2,161,2,2,2,1,1,1,0,1,0.268670902,0.444540526,1,S01
2,162,-8,8,2,2,1,2,1,1,0.219174885,0.36307801,1,S01
2,163,8,8,2,1,2,2,1,0,0.524039453,0.724018504,1,S01
2,164,1,1,2,2,2,2,1,1,0.84807897,1.160149199,1,S01
2,165,4,4,1,1,2,2,1,0,0.18540116,0.305252211,1,S01
2,166,-4,4,2,2,1,1,1,0,0.324737772,0.492645278,1,S01
2,167,-0.5,0.5,1,2,1,1,1,0,0.300083491,0.404038982,1,S01
2,168,-4,4,2,1,1,1,1,1,0.270001494,0.558413272,1,S01
2,169,-2,2,1,1,1,1,1,1,1.502870428,1.622917687,1,S01
2,170,8,8,2,2,2,2,1,1,0.244903782,0.364772945,1,S01
2,171,-8,8,1,1,1,1,1,1,0.253752458,0.397655583,1,S01
2,172,-0.5,0.5,2,1,1,1,1,1,0.24337336,0.363365681,1,S01
2,173,1,1,2,1,1,1,0,1,0.132102331,0.284083488,1,S01
2,174,-1,1,1,2,1,2,1,1,0.55935507,0.743414413,1,S01
2,175,-1,1,1,1,2,2,0,0,0.279804948,0.375654939,1,S01
2,176,8,8,1,2,2,2,1,1,0.228869972,0.268871034,1,S01
2,177,-8,8,2,2,1,2,1,1,0.46818328,0.603723118,1,S01
2,178,-2,2,2,2,1,1,1,0,0.189469607,0.309538902,1,S01
2,179,-0.5,0.5,1,2,2,2,0,1,0.14941904,0.301456342,1,S01
2,180,-0.5,0.5,2,1,1,1,1,1,0.169112883,0.281209193,1,S01
2,181,-4,4,1,1,1,1,1,1,0.156403439,0.316352751,1,S01
2,182,1,1,1,1,2,1,1,1,0.140332801,0.332357583,1,S01
2,183,-1,1,2,1,1,2,1,0,0.228681612,0.38070201,1,S01
2,184,-2,2,1,2,1,2,1,1,0.894086108,1.021941839,1,S01
2,185,0.5,0.5,2,2,2,2,1,1,0.460110078,0.860094442,1,S01
2,186,-1,1,2,1,2,2,0,0,0.158765782,0.31078286,1,S01
2,187,-0.5,0.5,1,1,1,1,1,1,0.262733046,0.40690392,1,S01
2,188,2,2,1,2,2,2,1,1,0.248531818,0.424513129,1,S01
2,189,-0.5,0.5,2,1,1,2,1,0,0.463141642,0.646500371,1,S01
2,190,4,4,1,2,1,1,0,0,0.349109514,0.453186051,1,S01
2,191,-2,2,2,2,1,2,1,1,0.432206593,0.695872325,1,S01
2,192,0.25,0.25,2,2,2,2,1,1,0.175307922,0.471203071,1,S01
3,1,-4,4,1,1,1,1,1,1,0.512915369,0.649031454,1,S01
3,2,-0.5,0.5,1,1,2,2,0,0,0.359500988,0.431567559,1,S01
3,3,0.25,0.25,1,1,1,2,0,0,0.314443497,0.457765846,1,S01
3,4,-1,1,2,2,1,2,1,1,0.30855424,0.556474436,1,S01
3,5,-4,4,1,1,1,1,1,1,0.237461766,0.373352665,1,S01
3,6,-0.5,0.5,2,1,2,2,0,0,0.146424907,1.218552453,1,S01
3,7,-2,2,1,1,1,1,1,1,0.136651337,0.280603967,1,S01
3,8,-8,8,1,1,1,1,1,1,0.00072995,0.107673236,1,S01
3,9,-1,1,1,1,2,2,0,0,0.263476825,0.383495106,1,S01
3,10,0.25,0.25,1,1,2,2,1,0,0.00116191,0.224779489,1,S01
3,11,2,2,2,1,2,2,1,0,0.494667729,0.78280874,1,S01
3,12,2,2,2,1,2,2,1,0,0.288067415,0.376028941,1,S01
3,13,-0.25,0.25,1,1,2,2,0,0,0.325145281,0.453165525,1,S01
3,14,-1,1,2,1,1,1,1,1,0.223994657,0.343887365,1,S01
3,15,-4,4,2,2,1,1,1,0,0.316613858,0.436547618,1,S01
3,16,-0.25,0.25,2,2,1,2,1,1,0.262997776,0.334808371,1,S01
3,17,-8,8,1,1,1,1,1,1,0.415199893,0.575321566,1,S01
3,18,0.25,0.25,2,1,1,1,0,1,0.316354864,0.444247723,1,S01
3,19,1,1,1,1,2,2,1,0,0.850721438,1.034756029,1,S01
3,20,-1,1,1,1,1,2,1,0,0.501122064,0.773020077,1,S01
3,21,-8,8,1,2,1,1,1,0,0.370124893,0.514369722,1,S01
3,22,8,8,1,2,2,2,1,1,0.354155379,0.498494387,1,S01
3,23,-1,1,1,1,1,1,1,1,0.557778162,0.773849282,1,S01
3,24,-2,2,2,2,1,2,1,1,0.218942756,0.354898554,1,S01
3,25,-1,1,1,2,1,1,1,0,0.175586236,0.263497955,1,S01
3,26,1,1,2,2,1,1,0,0,0.262526575,0.366521308,1,S01
3,27,-4,4,2,1,1,1,1,1,0.000707009,0.175357125,1,S01
3,28,4,4,2,1,2,2,1,0,0.172893961,0.308371012,1,S01
3,29,2,2,1,2,2,1,1,0,0.480233466,0.592155603,1,S01
3,30,8,8,1,2,2,2,1,1,0.277781893,0.397629322,1,S01
3,31,-0.5,0.5,2,1,1,1,1,1,0.211210654,0.315270588,1,S01
3,32,-1,1,2,1,2,2,0,0,0.027132294,0.131123707,1,S01
3,33,-4,4,1,2,2,2,0,1,0.295381745,1.071218707,1,S01
3,34,-8,8,2,1,1,1,1,1,0.000710028,0.166873094,1,S01
3,35,-1,1,1,2,1,2,1,1,0.255073089,0.359157474,1,S01
3,36,8,8,1,1,2,1,1,1,0.007947384,0.2239853,1,S01
3,37,-2,2,1,1,1,1,1,1,0.102066217,0.373979927,1,S01
3,38,-0.25,0.25,2,2,1,1,1,0,0.291054907,0.435070324,1,S01
3,39,4,4,1,1,2,2,1,0,0.181447721,0.341497552,1,S01
3,40,1,1,1,2,2,2,1,1,0.077793786,0.230239503,1,S01
3,41,0.25,0.25,2,1,2,2,1,0,0.344067272,0.432060796,1,S01
3,42,1,1,2,2,1,1,0,0,0.306529072,0.45032866,1,S01
3,43,1,1,1,2,1,1,0,0,0.341679573,0.48501128,1,S01
3,44,-0.25,0.25,1,1,1,2,1,0,0.229218618,0.404638171,1,S01
3,45,-1,1,2,1,1,1,1,1,0.470938643,0.614357889,1,S01
3,46,8,8,1,1,2,1,1,1,0.260329348,0.388315482,1,S01
3,47,-0.5,0.5,1,1,2,2,0,0,0.085703079,1.229702195,1,S01
3,48,-0.25,0.25,2,2,1,1,1,0,0.368054145,0.464062008,1,S01
3,49,0.25,0.25,1,2,1,2,0,1,0.55101412,0.790909713,1,S01
3,50,-1,1,2,2,1,1,1,0,0.276523144,0.372558777,1,S01
3,51,8,8,2,2,2,2,1,1,0.321601464,0.465534775,1,S01
3,52,-0.5,0.5,2,2,1,1,1,0,0.072636838,0.200541168,1,S01
3,53,0.25,0.25,2,2,1,2,0,1,0.302217327,0.430125884,1,S01
3,54,0.25,0.25,2,1,1,1,0,1,0.288478244,0.408467546,1,S01
3,55,2,2,1,1,2,1,1,1,0.402683638,0.482278858,1,S01
3,56,0.25,0.25,1,2,2,1,1,0,0.285567424,0.373478238,1,S01
3,57,-0.5,0.5,1,1,2,1,0,1,0.21860226,0.314593218,1,S01
3,58,4,4,2,2,2,2,1,1,0.162950445,0.250516838,1,S01
3,59,4,4,2,1,2,1,1,1,0.000727837,0.173223892,1,S01
3,60,-0.25,0.25,2,2,1,2,1,1,0.218274441,0.354302686,1,S01
3,61,-4,4,2,2,1,1,1,0,0.310858325,0.542882358,1,S01
3,62,0.25,0.25,2,1,1,2,0,0,0.103271236,0.175278642,1,S01
3,63,0.5,0.5,1,1,1,1,0,1,0.244468502,0.72446133,1,S01
3,64,-2,2,2,2,1,1,1,0,0.544547408,0.632537611,1,S01
3,65,-2,2,2,1,1,2,1,0,0.162947728,0.290859906,1,S01
3,66,-2,2,2,1,1,1,1,1,0.162397138,0.298359276,1,S01
3,67,0.25,0.25,1,2,1,1,0,0,0.342067461,0.430006046,1,S01
3,68,-8,8,2,2,1,1,1,0,0.120350684,0.232245352,1,S01
3,69,2,2,1,2,1,1,0,0,0.162553803,0.266473977,1,S01
3,70,0.5,0.5,1,2,1,1,0,0,0.20950938,0.257807925,1,S01
3,71,-0.25,0.25,1,2,1,1,1,0,0.356316986,0.940291869,1,S01
3,72,-8,8,2,1,1,1,1,1,0.356709402,0.500600151,1,S01
3,73,-0.25,0.25,1,2,1,1,1,0,0.128352043,0.304371389,1,S01
3,74,-2,2,2,1,1,1,1,1,0.172460794,0.44400835,1,S01
3,75,1,1,2,2,1,1,0,0,0.266571477,0.450596106,1,S01
3,76,8,8,1,2,2,2,1,1,0.24565873,0.485371397,1,S01
3,77,1,1,1,1,2,1,1,1,0.828625406,1.036746483,1,S01
3,78,-4,4,1,2,1,2,1,1,0.366918856,0.623035412,1,S01
3,79,0.5,0.5,1,1,1,1,0,1,0.597266669,0.693053572,1,S01
3,80,-8,8,1,1,1,1,1,1,0.220544114,0.788471905,1,S01
3,81,4,4,2,2,2,2,1,1,0.117791528,0.269692995,1,S01
3,82,2,2,1,2,2,2,1,1,0.092770489,0.228726287,1,S01
3,83,-2,2,1,1,1,1,1,1,0.302963521,0.39910722,1,S01
3,84,-0.5,0.5,2,2,1,2,1,1,0.180682209,0.292681622,1,S01
3,85,0.5,0.5,2,1,2,2,1,0,0.204139622,0.30805889,1,S01
3,86,8,8,2,1,2,1,1,1,0.295738541,0.399847377,1,S01
3,87,4,4,1,1,2,1,1,1,0.173392027,0.285369707,1,S01
3,88,4,4,2,1,2,1,1,1,0.213427502,0.380788644,1,S01
3,89,2,2,2,2,2,1,1,0,0.246099745,0.374100972,1,S01
3,90,0.5,0.5,1,2,2,1,1,0,0.13164411,0.243284312,1,S01
3,91,0.5,0.5,1,2,1,1,0,0,0.193786182,0.297784235,1,S01
3,92,8,8,2,2,2,2,1,1,0.52531239,0.813439516,1,S01
3,93,8,8,2,1,2,1,1,1,0.319179956,0.423187971,1,S01
3,94,2,2,1,1,2,1,1,1,0.205116134,0.293185121,1,S01
3,95,-8,8,1,2,1,2,1,1,0.324637253,0.444637121,1,S01
3,96,2,2,2,2,1,1,0,0,0.195177749,0.275175648,1,S01
3,97,4,4,1,1,2,1,1,1,0.198370203,0.342396184,1,S01
3,98,-1,1,2,1,2,1,0,1,0.094856632,0.206771827,1,S01
3,99,2,2,2,1,1,1,0,1,0.416523844,0.520669808,1,S01
3,100,0.5,0.5,1,1,1,2,0,0,0.212709984,0.332678156,1,S01
3,101,-2,2,1,2,1,2,1,1,0.221140888,0.693193332,1,S01
3,102,0.5,0.5,2,2,2,1,1,0,0.188592709,0.26083798,1,S01
3,103,0.5,0.5,2,1,2,1,1,1,0.127350477,0.231329815,1,S01
3,104,-2,2,1,1,2,2,0,0,0.689670041,0.825686211,1,S01
3,105,4,4,2,1,2,1,1,1,0.199697776,0.279924484,1,S01
3,106,-0.5,0.5,1,2,1,2,1,1,0.418830042,1.050750598,1,S01
3,107,-1,1,1,2,2,1,0,0,0.429973747,0.557655909,1,S01
3,108,-0.5,0.5,1,1,1,2,1,0,0.470488874,0.670435928,1,S01
3,109,-0.5,0.5,2,2,2,1,0,0,0.501464674,0.837397712,1,S01
3,110,-4,4,2,1,1,1,1,1,0.263702917,0.407746105,1,S01
3,111,1,1,1,1,2,1,1,1,0.585428086,0.777416644,1,S01
3,112,8,8,2,2,2,2,1,1,0.222512835,0.398587722,1,S01
3,113,-0.5,0.5,2,1,1,1,1,1,0.524135444,0.652061206,1,S01
3,114,8,8,1,2,2,2,1,1,0.270932727,0.454845668,1,S01
3,115,0.5,0.5,1,2,2,2,1,1,0.209717361,0.329658667,1,S01
3,116,2,2,1,1,2,1,1,1,0.15025066,0.293889357,1,S01
3,117,-0.5,0.5,1,2,1,2,1,1,0.213282308,0.35721411,1,S01
3,118,1,1,1,1,2,1,1,1,0.270102013,0.414065208,1,S01
3,119,-0.25,0.25,2,1,2,2,0,0,0.124211452,0.292242116,1,S01
3,120,0.25,0.25,1,2,2,1,1,0,0.011606511,0.211617257,1,S01
3,121,4,4,1,2,2,2,1,1,0.325351752,0.485320081,1,S01
3,122,-4,4,1,1,1,1,1,1,0.044824212,0.196875702,1,S01
3,123,2,2,1,2,2,1,1,0,0.00071033,0.12238219,1,S01
3,124,8,8,1,1,2,1,1,1,0.022543141,0.150488826,1,S01
3,125,-2,2,2,1,1,1,1,1,0.099206411,0.243144552,1,S01
3,126,-2,2,1,2,2,1,0,0,0.018451149,0.417849304,1,S01
3,127,1,1,1,2,1,1,0,0,0.000714254,0.135749082,1,S01
3,128,-2,2,1,2,1,1,1,0,0.264056091,0.344089006,1,S01
3,129,2,2,1,1,2,1,1,1,0.000707613,0.09275117,1,S01
3,130,-4,4,2,2,1,2,1,1,0.000710933,0.204240442,1,S01
3,131,0.25,0.25,1,1,1,1,0,1,0.000710632,0.198065326,1,S01
3,132,-8,8,1,1,1,1,1,1,0.107594753,0.363559474,1,S01
3,133,-4,4,1,2,1,1,1,0,0.108510289,0.236463822,1,S01
3,134,0.5,0.5,2,2,2,2,1,1,0.238757342,0.526786968,1,S01
3,135,4,4,1,2,1,1,0,0,0.210928114,0.306854174,1,S01
3,136,8,8,1,1,2,1,1,1,0.078493796,0.43851,1,S01
3,137,-8,8,2,1,1,1,1,1,0.000708217,0.133088503,1,S01
3,138,-4,4,2,1,1,1,1,1,0.013490711,0.197566958,1,S01
3,139,-4,4,2,2,1,2,1,1,0.115084463,0.275475997,1,S01
3,140,1,1,2,1,1,1,0,1,0.16632009,0.254248411,1,S01
3,141,4,4,1,1,2,1,1,1,0.1529861,0.312919414,1,S01
3,142,-0.25,0.25,1,2,1,2,1,1,0.000712141,0.128989266,1,S01
3,143,-8,8,1,2,1,1,1,0,0.293157954,0.381061524,1,S01
3,144,-0.25,0.25,1,2,1,2,1,1,0.095219466,0.222512231,1,S01
3,145,-1,1,1,1,1,1,1,1,0.004537894,0.172435438,1,S01
3,146,1,1,2,1,1,1,0,1,0.241584548,0.329551809,1,S01
3,147,-2,2,1,2,1,1,1,0,0.757880673,0.893682222,1,S01
3,148,0.5,0.5,1,1,1,1,0,1,0.221207297,0.325074948,1,S01
3,149,-4,4,2,1,1,1,1,1,0.193334602,0.785355217,1,S01
3,150,-0.25,0.25,1,1,1,1,1,1,0.194734017,0.306684831,1,S01
3,151,1,1,2,1,1,1,0,1,0.43836873,0.606369208,1,S01
3,152,-0.25,0.25,2,1,1,1,1,1,0.040163217,0.20823101,1,S01
3,153,4,4,2,2,2,2,1,1,0.330067082,0.418018647,1,S01
3,154,-8,8,1,2,1,2,1,1,0.327996937,0.599956227,1,S01
3,155,-8,8,2,2,1,1,1,0,0.157542048,0.293616779,1,S01
3,156,-8,8,2,1,1,1,1,1,0.253057882,0.372969305,1,S01
3,157,0.5,0.5,2,2,1,1,0,0,0.202027821,0.346010938,1,S01
3,158,-0.25,0.25,2,1,2,1,0,1,0.407357009,0.479360793,1,S01
3,159,-0.5,0.5,1,2,2,1,0,0,0.073882607,0.226016505,1,S01
3,160,4,4,2,2,2,1,1,0,0.276215852,0.38016923,1,S01
3,161,-0.5,0.5,2,1,1,2,1,0,0.181623101,0.325508718,1,S01
3,162,0.5,0.5,2,1,2,1,1,1,0.193661212,0.689601821,1,S01
3,163,-1,1,2,2,2,2,0,1,0.273107013,0.353108232,1,S01
3,164,-0.5,0.5,1,2,1,1,1,0,0.581735755,0.789778952,1,S01
3,165,-4,4,1,1,1,1,1,1,0.039063246,0.327069024,1,S01
3,166,-2,2,2,2,1,2,1,1,0.227219712,0.323242668,1,S01
3,167,0.25,0.25,2,2,1,1,0,0,0.183399236,0.295480754,1,S01
3,168,-1,1,2,2,1,1,1,0,0.502872239,0.622811433,1,S01
3,169,-4,4,1,2,1,1,1,0,0.268842961,0.52496646,1,S01
3,170,-0.25,0.25,2,1,1,2,1,0,1.265016303,1.37698221,1,S01
3,171,0.25,0.25,2,2,1,1,0,0,0.750111141,0.91012656,1,S01
3,172,-8,8,2,2,1,2,1,1,0.798016968,1.078383617,1,S01
3,173,2,2,2,2,2,2,1,1,0.385168609,0.777231002,1,S01
3,174,0.25,0.25,1,1,1,1,0,1,0.198459553,0.350230918,1,S01
3,175,4,4,1,2,2,2,1,1,0.018986948,0.194979428,1,S01
3,176,0.5,0.5,2,2,1,1,0,0,0.20852019,0.344554472,1,S01
3,177,-0.25,0.25,1,1,1,1,1,1,0.061222064,0.30910483,1,S01
3,178,0.25,0.25,2,2,1,1,0,0,0.14913801,0.269098635,1,S01
3,179,8,8,2,2,2,2,1,1,0.068148506,0.196015104,1,S01
3,180,-2,2,2,2,2,2,0,1,0.00163794,0.161749652,1,S01
3,181,1,1,1,2,2,1,1,0,0.000743534,0.162587007,1,S01
3,182,-8,8,2,2,1,1,1,0,0.099317797,0.403333237,1,S01
3,183,2,2,2,1,1,1,0,1,0.101119287,0.269188287,1,S01
3,184,8,8,2,1,2,1,1,1,0.212179015,0.340208013,1,S01
3,185,4,4,1,2,2,2,1,1,0.108967907,0.204553168,1,S01
3,186,-0.5,0.5,2,2,1,1,1,0,0.142921539,0.230279952,1,S01
3,187,8,8,2,1,2,2,1,0,0.424667379,0.520535179,1,S01
3,188,-1,1,1,2,1,1,1,0,0.852769849,0.980788282,1,S01
3,189,1,1,2,1,2,2,1,0,0.334112889,0.494063107,1,S01
3,190,2,2,2,2,2,1,1,0,0.125542345,0.214251877,1,S01
3,191,1,1,2,2,2,2,1,1,0.21965333,0.323567165,1,S01
3,192,0.5,0.5,2,1,2,1,1,1,0.151812475,0.263677259,1,S01
1,1,-1,1,2,2,2,2,0,1,0.416037106,0.544037041,1,S02
1,2,8,8,1,2,2,2,1,1,0.300709147,0.372548201,1,S02
1,3,-0.25,0.25,1,1,2,1,0,1,0.305798463,0.385960331,1,S02
1,4,0.25,0.25,1,2,2,2,1,1,1.203103541,1.282967777,1,S02
1,5,-0.25,0.25,1,2,2,2,0,1,0.254339918,0.358917224,1,S02
1,6,-1,1,1,2,2,2,0,1,0.319179804,0.423105702,1,S02
1,7,-2,2,1,2,2,1,0,0,2.269171081,2.821060074,1,S02
1,8,-8,8,2,2,1,2,1,1,1.115059873,1.235074772,1,S02
1,9,-2,2,1,1,1,1,1,1,2.901854635,3.069343864,1,S02
1,10,-0.5,0.5,2,1,2,2,0,0,0.348228452,0.948198508,1,S02
1,11,-4,4,2,1,1,1,1,1,0.520932872,0.672874328,1,S02
1,12,-8,8,2,1,1,1,1,1,0.239936187,0.367896578,1,S02
1,13,-8,8,1,1,1,1,1,1,21.42429864,21.52035572,1,S02
1,14,1,1,1,1,2,2,1,0,0.280089566,0.392180708,1,S02
1,15,4,4,2,2,2,2,1,1,0.165602884,0.277564529,1,S02
1,16,1,1,1,1,2,1,1,1,0.000698763,0.024813551,1,S02
1,17,-0.25,0.25,1,2,2,1,0,0,0.726834668,0.830824861,1,S02
1,18,-0.5,0.5,2,1,2,1,0,1,0.209205589,0.305087891,1,S02
1,19,0.25,0.25,2,2,2,2,1,1,0.164831638,0.284854688,1,S02
1,20,2,2,1,2,2,2,1,1,0.056099868,0.216070733,1,S02
1,21,-2,2,2,1,1,1,1,1,0.110150161,0.254082132,1,S02
1,22,1,1,2,1,2,1,1,1,0.248841283,0.345531356,1,S02
1,23,-1,1,2,2,2,2,0,1,0.205533493,0.309488973,1,S02
1,24,2,2,2,1,2,1,1,1,0.629428891,0.973332065,1,S02
1,25,2,2,1,2,2,2,1,1,0.14644369,0.290406752,1,S02
1,26,0.25,0.25,2,2,2,1,1,0,0.945927332,1.129889224,1,S02
1,27,-0.5,0.5,2,1,2,1,0,1,0.150623812,0.31800256,1,S02
1,28,-8,8,1,2,1,2,1,1,0.062080872,0.197988566,1,S02
1,29,0.25,0.25,1,2,1,1,0,0,0.179530285,0.299610386,1,S02
1,30,0.25,0.25,1,1,2,1,1,1,0.031239492,0.183163743,1,S02
1,31,8,8,2,1,2,1,1,1,0.024672583,0.152591017,1,S02
1,32,-2,2,2,1,1,1,1,1,1.149738162,1.23765837,1,S02
1,33,-0.25,0.25,2,2,1,1,1,0,0.055467477,0.191485047,1,S02
1,34,-0.25,0.25,2,1,2,2,0,0,0.005077507,0.15704764,1,S02
1,35,0.25,0.25,1,2,2,2,1,1,0.445887185,0.565928347,1,S02
1,36,8,8,1,1,2,2,1,0,0.246797406,0.398802555,1,S02
1,37,2,2,1,1,2,1,1,1,0.252360941,0.58840586,1,S02
1,38,-1,1,2,1,2,1,0,1,0.237643881,0.365705395,1,S02
1,39,-4,4,2,1,1,1,1,1,0.198474858,0.326448532,1,S02
1,40,0.5,0.5,2,2,2,1,1,0,0.002751092,0.162722862,1,S02
1,41,-1,1,1,1,2,2,0,0,0.179508249,0.315597662,1,S02
1,42,-8,8,2,2,1,2,1,1,0.115371691,0.27549107,1,S02
1,43,-0.5,0.5,1,1,1,1,1,1,0.095473248,0.230702971,1,S02
1,44,0.5,0.5,1,1,1,2,0,0,0.056945975,0.176898993,1,S02
1,45,-2,2,2,2,1,2,1,1,0.190132726,0.374061715,1,S02
1,46,0.25,0.25,1,2,2,2,1,1,0.187216783,0.339126243,1,S02
1,47,4,4,1,2,2,2,1,1,0.044195818,0.203575042,1,S02
1,48,8,8,1,2,2,2,1,1,0.021409806,0.165295593,1,S02
1,49,0.25,0.25,1,1,2,2,1,0,0.110255509,0.278234954,1,S02
1,50,-2,2,1,2,1,1,1,0,0.289475522,0.417449799,1,S02
1,51,8,8,2,2,2,2,1,1,0.151421319,0.319436081,1,S02
1,52,-0.25,0.25,1,1,2,1,0,1,0.383341718,0.50334394,1,S02
1,53,0.5,0.5,2,2,2,1,1,0,0.187025707,0.315034094,1,S02
1,54,4,4,2,2,2,2,1,1,0.000698763,0.154972068,1,S02
1,55,-1,1,1,1,2,2,0,0,0.008304967,0.183612001,1,S02
1,56,1,1,2,2,2,2,1,1,0.217084672,0.353003837,1,S02
1,57,-8,8,1,1,1,1,1,1,0.149609269,0.293555427,1,S02
1,58,-8,8,2,2,1,2,1,1,0.165098782,0.284984185,1,S02
1,59,0.25,0.25,2,1,1,1,0,1,0.016325621,0.176301316,1,S02
1,60,-4,4,1,2,1,2,1,1,0.000700272,0.157406549,1,S02
1,61,-8,8,2,2,1,2,1,1,0.00070148,0.142240627,1,S02
1,62,-0.25,0.25,1,2,1,1,1,0,0.174588878,0.294676224,1,S02
1,63,0.5,0.5,2,1,1,1,0,1,0.446120219,0.574070348,1,S02
1,64,-0.25,0.25,1,1,1,1,1,1,0.291210297,0.387132746,1,S02
1,65,-8,8,1,2,1,2,1,1,0.100516381,0.236953835,1,S02
1,66,-0.25,0.25,2,2,1,2,1,1,0.214851229,0.366744992,1,S02
1,67,-2,2,2,1,1,1,1,1,0.000699065,0.079659842,1,S02
1,68,-8,8,2,1,1,1,1,1,0.978985251,1.130781816,1,S02
1,69,8,8,2,2,2,2,1,1,0.13550015,0.270966529,1,S02
1,70,-0.25,0.25,1,1,2,1,0,1,1.406012722,1.533917572,1,S02
1,71,1,1,2,2,2,2,1,1,0.000702989,0.070356294,1,S02
1,72,8,8,1,2,2,2,1,1,0.189769591,0.309439166,1,S02
1,73,-4,4,1,1,1,1,1,1,0.00069997,0.013212867,1,S02
1,74,0.25,0.25,1,1,2,2,1,0,0.111048791,0.231171755,1,S02
1,75,-0.25,0.25,2,1,2,2,0,0,0.337785694,0.561418898,1,S02
1,76,1,1,2,1,2,1,1,1,0.77024026,0.866194102,1,S02
1,77,-1,1,2,2,2,1,0,0,1.185146946,1.265244519,1,S02
1,78,-1,1,1,2,1,2,1,1,0.336076879,0.480230413,1,S02
1,79,-8,8,1,1,1,1,1,1,0.107395108,0.235318975,1,S02
1,80,-8,8,1,2,1,2,1,1,0.085624847,0.229653714,1,S02
1,81,2,2,1,1,2,1,1,1,0.256624979,0.375954059,1,S02
1,82,0.5,0.5,1,1,1,1,0,1,0.485549745,0.829008585,1,S02
1,83,8,8,2,1,2,1,1,1,0.01522354,0.159262972,1,S02
1,84,4,4,2,1,2,1,1,1,0.448805241,0.544087753,1,S02
1,85,-0.25,0.25,2,1,2,1,0,1,1.156908182,1.292716867,1,S02
1,86,-4,4,1,1,1,1,1,1,0.676317012,0.804109269,1,S02
1,87,-8,8,1,2,1,2,1,1,0.102013594,0.238666876,1,S02
1,88,-0.25,0.25,2,2,1,1,1,0,0.492727613,0.660392824,1,S02
1,89,0.5,0.5,2,2,2,2,1,1,0.447284484,0.599144439,1,S02
1,90,-0.5,0.5,1,1,2,1,0,1,1.725331418,1.83676451,1,S02
1,91,-0.5,0.5,2,2,2,1,0,0,0.831357337,0.919004063,1,S02
1,92,-1,1,2,1,1,1,1,1,0.238944887,0.326958369,1,S02
1,93,8,8,2,2,2,2,1,1,0.067220598,0.202995777,1,S02
1,94,4,4,1,2,2,2,1,1,0.000699367,0.101293664,1,S02
1,95,0.25,0.25,2,1,2,2,1,0,0.128566182,0.256741798,1,S02
1,96,-0.5,0.5,1,2,1,2,1,1,0.147315454,0.267343334,1,S02
1,97,8,8,1,1,2,1,1,1,0.194224102,0.378317301,1,S02
1,98,8,8,1,1,2,1,1,1,0.135795668,0.247328374,1,S02
1,99,1,1,2,1,2,1,1,1,0.877889871,0.981879762,1,S02
1,100,-1,1,1,2,2,2,0,1,0.399238437,0.503206595,1,S02
1,101,0.25,0.25,2,1,2,2,1,0,0.4110145,0.570846208,1,S02
1,102,-1,1,2,1,1,1,1,1,0.303973735,0.40792348,1,S02
1,103,-0.5,0.5,1,2,1,2,1,1,0.297832445,0.409814918,1,S02
1,104,8,8,2,1,2,1,1,1,0.29954126,0.435529551,1,S02
1,105,1,1,2,2,2,1,1,0,0.318581825,0.397811255,1,S02
1,106,-4,4,2,2,1,2,1,1,0.339433533,0.467384869,1,S02
1,107,2,2,2,1,1,1,0,1,0.562431328,0.794931897,1,S02
1,108,-1,1,1,1,1,1,1,1,0.17593154,0.311932811,1,S02
1,109,1,1,1,2,2,2,1,1,0.328058337,0.53591617,1,S02
1,110,-1,1,2,2,1,1,1,0,0.576240099,0.680265308,1,S02
1,111,8,8,1,1,2,1,1,1,0.323426637,0.42742015,1,S02
1,112,-2,2,2,2,2,1,0,0,0.229772646,0.341794059,1,S02
1,113,8,8,2,1,2,1,1,1,0.294208043,0.38213459,1,S02
1,114,-2,2,1,2,1,2,1,1,0.343533965,0.431959785,1,S02
1,115,-1,1,2,1,1,1,1,1,0.185743719,0.297728606,1,S02
1,116,-1,1,1,2,1,2,1,1,0.309546024,0.421411074,1,S02
1,117,-0.25,0.25,2,1,1,1,1,1,0.331487438,0.475528983,1,S02
1,118,2,2,2,2,2,1,1,0,0.094635292,0.214711469,1,S02
1,119,-4,4,2,2,1,2,1,1,0.236840337,0.356709439,1,S02
1,120,0.5,0.5,1,1,1,1,0,1,0.133512117,0.253625422,1,S02
1,121,-4,4,2,2,1,2,1,1,0.280791687,0.400410248,1,S02
1,122,0.5,0.5,1,2,1,1,0,0,0.277861556,0.365814969,1,S02
1,123,0.25,0.25,2,2,1,1,0,0,0.334810889,0.446767402,1,S02
1,124,0.5,0.5,2,1,1,2,0,0,0.261233135,0.373501165,1,S02
1,125,0.25,0.25,2,1,2,1,1,1,0.386420362,0.490308528,1,S02
1,126,4,4,1,1,2,1,1,1,0.113934548,0.265882042,1,S02
1,127,-0.5,0.5,1,2,1,1,1,0,0.689321635,0.800765292,1,S02
1,128,0.5,0.5,2,1,2,1,1,1,0.454607243,0.702331389,1,S02
1,129,1,1,2,2,2,2,1,1,0.346026402,0.529954787,1,S02
1,130,-8,8,2,1,1,1,1,1,0.302178287,0.423016352,1,S02
1,131,-8,8,2,1,1,1,1,1,0.212207259,0.348191626,1,S02
1,132,2,2,2,1,2,1,1,1,0.288794833,0.37680258,1,S02
1,133,2,2,2,1,2,1,1,1,0.285962505,0.437932034,1,S02
1,134,1,1,1,2,1,1,0,0,0.216622528,0.352221121,1,S02
1,135,4,4,1,1,2,1,1,1,0.260789707,0.388817714,1,S02
1,136,0.25,0.25,2,2,1,2,0,1,0.254182651,0.37413567,1,S02
1,137,-4,4,2,1,1,1,1,1,0.331278553,0.419192724,1,S02
1,138,4,4,1,2,2,2,1,1,0.12189634,0.273346675,1,S02
1,139,-0.5,0.5,2,2,1,2,1,1,0.732486948,0.876545096,1,S02
1,140,-4,4,2,1,1,1,1,1,0.2396784,0.335692312,1,S02
1,141,4,4,2,1,2,1,1,1,0.304249633,0.432119165,1,S02
1,142,-4,4,2,2,1,2,1,1,0.282455223,0.386764782,1,S02
1,143,2,2,1,2,1,1,0,0,0.252343433,0.347716804,1,S02
1,144,-4,4,1,2,1,2,1,1,0.304320569,0.480912611,1,S02
1,145,-0.5,0.5,2,1,1,1,1,1,0.259522811,0.380053585,1,S02
1,146,-2,2,1,1,1,1,1,1,0.40492362,0.500848484,1,S02
1,147,-2,2,2,2,1,1,1,0,0.072617206,0.224491046,1,S02
1,148,2,2,2,2,1,1,0,0,0.806624949,0.94256132,1,S02
1,149,-1,1,1,1,1,1,1,1,0.319680888,0.430877626,1,S02
1,150,-4,4,1,1,1,1,1,1,0.217249486,0.361173005,1,S02
1,151,8,8,1,2,2,2,1,1,0.234188821,0.386089225,1,S02
1,152,-0.5,0.5,1,2,1,1,1,0,0.347417663,0.459374176,1,S02
1,153,-2,2,1,2,1,2,1,1,0.198220996,0.326743144,1,S02
1,154,2,2,1,2,2,2,1,1,0.226279552,0.354336839,1,S02
1,155,4,4,1,1,2,1,1,1,0.327557254,0.463023633,1,S02
1,156,-0.5,0.5,2,2,1,2,1,1,0.261894203,0.405966236,1,S02
1,157,8,8,2,2,2,2,1,1,0.255767704,0.383740472,1,S02
1,158,-0.5,0.5,1,1,2,1,0,1,1.313075945,1.441005547,1,S02
1,159,1,1,2,1,1,2,0,0,0.303633542,0.447505745,1,S02
1,160,-0.5,0.5,1,1,2,1,0,1,0.230118273,0.374743611,1,S02
1,161,2,2,1,1,2,1,1,1,0.299164844,0.395151891,1,S02
1,162,0.5,0.5,1,1,1,1,0,1,0.304735322,0.416924567,1,S02
1,163,2,2,2,2,2,1,1,0,0.510854455,0.918737825,1,S02
1,164,0.5,0.5,1,2,2,1,1,0,0.294747764,0.406601948,1,S02
1,165,-2,2,1,1,1,1,1,1,0.21714776,0.312532903,1,S02
1,166,4,4,1,2,1,1,0,0,0.680362506,0.784405524,1,S02
1,167,4,4,2,2,2,2,1,1,0.297758188,0.417730224,1,S02
1,168,-2,2,2,1,1,1,1,1,0.127847762,0.24781527,1,S02
1,169,-2,2,2,2,1,1,1,0,0.222248547,0.342283973,1,S02
1,170,-4,4,1,1,1,1,1,1,0.166578487,0.270619393,1,S02
1,171,-4,4,1,2,1,2,1,1,0.29386634,0.414306557,1,S02
1,172,-8,8,1,1,1,1,1,1,0.271433502,0.399417438,1,S02
1,173,1,1,1,2,1,2,0,1,0.96496518,1.188944011,1,S02
1,174,-4,4,1,2,1,2,1,1,0.23839943,0.36639695,1,S02
1,175,4,4,2,2,2,2,1,1,0.215352614,0.319952861,1,S02
1,176,0.5,0.5,1,2,2,2,1,1,0.247078134,0.391167674,1,S02
1,177,4,4,2,1,2,1,1,1,0.276639336,0.436664535,1,S02
1,178,-0.5,0.5,2,2,1,2,1,1,0.190948345,0.303003263,1,S02
1,179,4,4,1,1,2,1,1,1,0.258698136,0.362676859,1,S02
1,180,0.5,0.5,2,2,2,2,1,1,0.28372725,0.419489751,1,S02
1,181,0.5,0.5,1,2,2,2,1,1,0.113562358,0.257539004,1,S02
1,182,-0.25,0.25,2,2,2,2,0,1,0.332387577,0.484319676,1,S02
1,183,1,1,1,1,2,2,1,0,0.247525788,0.375446033,1,S02
1,184,1,1,1,1,2,1,1,1,0.460595491,0.596516769,1,S02
1,185,1,1,1,2,1,1,0,0,0.29019183,0.682098488,1,S02
1,186,0.5,0.5,2,1,2,2,1,0,0.301319804,0.421411376,1,S02
1,187,0.25,0.25,1,1,2,1,1,1,0.219413502,0.339366219,1,S02
1,188,2,2,2,2,2,2,1,1,0.251855028,0.379774065,1,S02
1,189,-0.25,0.25,1,2,2,1,0,0,0.253113773,0.42120732,1,S02
1,190,-2,2,1,1,1,1,1,1,0.267889696,0.387140896,1,S02
1,191,4,4,2,1,2,1,1,1,0.108465193,0.260486642,1,S02
1,192,2,2,1,1,2,1,1,1,0.223285428,0.343350134,1,S02
2,1,0.5,0.5,1,2,2,2,1,1,0.351588126,0.486883049,1,S02
2,2,0.5,0.5,2,2,2,1,1,0,0.254449795,0.318383504,1,S02
2,3,-4,4,2,2,1,2,1,1,0.302317141,0.399029853,1,S02
2,4,4,4,2,2,2,2,1,1,0.291931736,0.355868464,1,S02
2,5,0.5,0.5,1,2,2,1,1,0,0.300718203,0.420756647,1,S02
2,6,4,4,1,2,2,2,1,1,0.25876696,0.346787083,1,S02
2,7,-4,4,1,2,1,2,1,1,0.263478653,0.359327147,1,S02
2,8,4,4,2,1,2,1,1,1,0.200263666,0.392227496,1,S02
2,9,1,1,1,2,2,2,1,1,0.293868151,0.373793363,1,S02
2,10,-1,1,1,2,2,1,0,0,0.266899905,0.354893163,1,S02
2,11,8,8,2,2,2,2,1,1,0.279981501,0.391610499,1,S02
2,12,0.25,0.25,1,1,2,1,1,1,0.221152805,0.333135882,1,S02
2,13,-8,8,1,1,1,1,1,1,0.165586886,0.269574966,1,S02
2,14,-2,2,1,1,1,1,1,1,0.332514357,0.428679198,1,S02
2,15,0.25,0.25,1,2,2,2,1,1,0.207160806,0.310971998,1,S02
2,16,-0.25,0.25,2,1,1,1,1,1,0.302695671,0.390659045,1,S02
2,17,-8,8,1,1,1,1,1,1,0.252304494,0.356237636,1,S02
2,18,8,8,2,2,2,2,1,1,0.333143428,0.445059492,1,S02
2,19,-2,2,1,2,1,2,1,1,0.347586703,0.611633791,1,S02
2,20,-8,8,2,2,1,2,1,1,0.165444711,0.277410883,1,S02
2,21,1,1,1,1,2,2,1,0,0.288706087,0.392721033,1,S02
2,22,0.25,0.25,1,1,2,1,1,1,0.246843591,0.350239728,1,S02
2,23,0.25,0.25,1,1,1,2,0,0,0.290816675,0.402886384,1,S02
2,24,0.5,0.5,2,2,2,2,1,1,0.268598759,0.381028283,1,S02
2,25,-1,1,1,1,2,1,0,1,0.341996303,0.422237258,1,S02
2,26,-8,8,1,2,1,2,1,1,0.060062351,0.203951156,1,S02
2,27,-2,2,1,2,1,2,1,1,0.237872085,0.389833766,1,S02
2,28,-1,1,1,1,1,2,1,0,0.567185583,0.639108856,1,S02
2,29,-2,2,1,1,1,1,1,1,0.149620438,0.285578542,1,S02
2,30,4,4,2,1,2,1,1,1,0.237086652,0.349060371,1,S02
2,31,0.5,0.5,2,1,2,1,1,1,0.201716807,0.337720191,1,S02
2,32,-8,8,1,2,1,2,1,1,0.282151253,0.410126133,1,S02
2,33,-1,1,1,2,2,2,0,1,0.299955107,0.395892951,1,S02
2,34,-4,4,1,2,1,2,1,1,0.218079896,0.345511131,1,S02
2,35,1,1,2,1,2,1,1,1,0.414531743,0.526118481,1,S02
2,36,0.25,0.25,2,2,2,1,1,0,0.37869583,0.490499,1,S02
2,37,0.5,0.5,1,2,2,1,1,0,0.201725863,0.313661246,1,S02
2,38,-2,2,2,2,1,2,1,1,0.369699573,0.497644267,1,S02
2,39,2,2,1,2,2,2,1,1,0.269387814,0.365363994,1,S02
2,40,0.25,0.25,2,1,2,1,1,1,0.174171711,0.270381227,1,S02
2,41,1,1,2,1,2,1,1,1,0.341224152,0.421179248,1,S02
2,42,-8,8,2,1,1,1,1,1,0.339226761,0.427177457,1,S02
2,43,-1,1,2,2,1,2,1,1,0.469417275,0.733548883,1,S02
2,44,2,2,1,1,2,1,1,1,0.181832552,0.29378665,1,S02
2,45,-0.25,0.25,2,2,1,1,1,0,0.157249885,0.269343139,1,S02
2,46,-0.5,0.5,2,2,1,1,1,0,1.028240237,1.156185233,1,S02
2,47,0.25,0.25,1,2,2,2,1,1,0.229125162,0.341089825,1,S02
2,48,-4,4,2,1,1,1,1,1,0.197489294,0.34157974,1,S02
2,49,4,4,1,1,2,2,1,0,0.213982181,0.310076387,1,S02
2,50,-0.25,0.25,1,2,2,1,0,0,0.261775875,0.381883445,1,S02
2,51,1,1,1,2,1,2,0,1,0.263179512,0.391426366,1,S02
2,52,-0.25,0.25,1,1,2,2,0,0,0.197478729,0.325322,1,S02
2,53,2,2,1,2,2,1,1,0,0.160923188,0.280819156,1,S02
2,54,-0.25,0.25,2,2,1,1,1,0,0.436093119,0.732036275,1,S02
2,55,4,4,1,2,2,2,1,1,0.284557358,0.724482896,1,S02
2,56,-8,8,2,1,1,1,1,1,0.176634566,0.272631876,1,S02
2,57,-2,2,1,2,1,2,1,1,0.239658176,0.343641426,1,S02
2,58,0.5,0.5,1,1,2,1,1,1,0.528068782,0.640403824,1,S02
2,59,8,8,1,1,2,1,1,1,0.190502199,0.334582081,1,S02
2,60,-0.5,0.5,1,1,1,1,1,1,0.062897396,0.206827254,1,S02
2,61,-1,1,2,1,2,2,0,0,0.289397944,0.40868899,1,S02
2,62,-8,8,1,2,1,2,1,1,0.234498526,0.330531154,1,S02
2,63,1,1,2,2,2,2,1,1,0.118634469,0.254577178,1,S02
2,64,-4,4,2,2,1,2,1,1,0.265994635,0.385509055,1,S02
2,65,-1,1,2,2,1,2,1,1,0.170794228,0.290786791,1,S02
2,66,8,8,2,1,2,1,1,1,0.226175411,0.314132144,1,S02
2,67,-4,4,2,1,1,1,1,1,0.874187589,0.962103873,1,S02
2,68,1,1,1,1,2,1,1,1,0.251128155,0.362965737,1,S02
2,69,0.25,0.25,2,2,2,2,1,1,0.267809703,0.380011627,1,S02
2,70,-8,8,2,2,1,2,1,1,0.213239914,0.301223512,1,S02
2,71,2,2,1,1,1,2,0,0,0.272886342,0.392829701,1,S02
2,72,-1,1,1,1,1,1,1,1,0.326318431,0.422350153,1,S02
2,73,-4,4,1,1,1,1,1,1,0.052571456,0.188459832,1,S02
2,74,8,8,2,1,2,1,1,1,0.261753839,0.349741664,1,S02
2,75,2,2,1,2,1,1,0,0,0.178914496,0.266292568,1,S02
2,76,0.25,0.25,2,2,2,2,1,1,0.265395749,0.385456531,1,S02
2,77,1,1,1,2,1,1,0,0,0.29873349,0.394666504,1,S02
2,78,-0.5,0.5,2,1,1,1,1,1,0.384310681,0.488261934,1,S02
2,79,8,8,1,2,2,2,1,1,0.199835934,0.335708613,1,S02
2,80,4,4,2,1,2,1,1,1,0.216130501,0.368097615,1,S02
2,81,-4,4,2,1,1,1,1,1,0.389957226,0.421266183,1,S02
2,82,0.25,0.25,2,1,1,1,0,1,0.323307403,0.459206343,1,S02
2,83,-4,4,2,2,1,2,1,1,0.26206928,0.373964818,1,S02
2,84,-0.5,0.5,2,1,2,1,0,1,0.243176324,0.379113299,1,S02
2,85,-0.25,0.25,1,2,1,2,1,1,0.296190643,0.46416888,1,S02
2,86,-8,8,1,1,1,1,1,1,0.295190287,0.399161765,1,S02
2,87,2,2,2,2,2,1,1,0,0.436792522,0.564765894,1,S02
2,88,8,8,1,1,2,1,1,1,0.261618305,0.365657701,1,S02
2,89,-0.25,0.25,1,1,2,2,0,0,0.278418182,0.406430794,1,S02
2,90,-8,8,2,1,1,1,1,1,0.272310096,0.360274677,1,S02
2,91,8,8,1,2,2,2,1,1,0.201618402,0.297168963,1,S02
2,92,-0.25,0.25,2,1,1,2,1,0,1.444859361,1.540848219,1,S02
2,93,4,4,1,1,2,2,1,0,0.749356856,0.853187366,1,S02
2,94,-2,2,2,2,1,2,1,1,0.327834661,0.439904974,1,S02
2,95,2,2,2,1,1,1,0,1,0.350393676,0.478383649,1,S02
2,96,8,8,2,1,2,1,1,1,0.353609665,0.449849064,1,S02
2,97,-0.25,0.25,1,2,2,1,0,0,0.364354885,0.469138661,1,S02
2,98,1,1,2,1,2,1,1,1,0.027395941,0.171351759,1,S02
2,99,-2,2,2,2,1,2,1,1,0.184414037,0.35242246,1,S02
2,100,1,1,2,2,2,1,1,0,0.205115722,0.325793501,1,S02
2,101,-1,1,1,2,1,2,1,1,0.20174488,0.305237914,1,S02
2,102,0.5,0.5,1,2,1,2,0,1,1.356960886,1.485009722,1,S02
2,103,0.25,0.25,2,2,1,1,0,0,0.212330115,0.33240267,1,S02
2,104,-4,4,2,2,1,2,1,1,0.268685996,0.380741518,1,S02
2,105,-0.5,0.5,1,2,2,2,0,1,0.126031787,0.414146875,1,S02
2,106,2,2,1,1,2,1,1,1,0.319890377,0.488509457,1,S02
2,107,0.5,0.5,2,2,1,1,0,0,0.311678647,0.42332153,1,S02
2,108,-0.5,0.5,2,2,1,2,1,1,0.237331459,0.33400342,1,S02
2,109,2,2,2,2,1,1,0,0,0.309869615,0.405645059,1,S02
2,110,-4,4,1,2,1,2,1,1,0.000700876,0.087528662,1,S02
2,111,-0.5,0.5,1,1,1,1,1,1,0.095024084,0.567033749,1,S02
2,112,8,8,1,2,2,2,1,1,0.19999622,0.311795465,1,S02
2,113,4,4,1,2,2,2,1,1,0.143899635,0.287856057,1,S02
2,114,-8,8,2,2,1,2,1,1,0.287224873,0.407858278,1,S02
2,115,0.5,0.5,1,1,1,2,0,0,0.353047304,0.464956124,1,S02
2,116,-0.5,0.5,1,1,1,1,1,1,0.231968961,0.344018144,1,S02
2,117,4,4,2,1,2,1,1,1,0.79657702,0.884584465,1,S02
2,118,4,4,2,2,2,2,1,1,0.12782965,0.240026442,1,S02
2,119,-0.25,0.25,2,2,2,1,0,0,0.718386583,0.862372285,1,S02
2,120,-0.5,0.5,1,2,2,1,0,0,0.109397631,0.277333608,1,S02
2,121,-1,1,2,1,1,1,1,1,0.152568981,0.264736795,1,S02
2,122,-2,2,2,1,1,2,1,0,0.327486619,0.416069103,1,S02
2,123,2,2,2,1,1,2,0,0,0.4138097,0.533477463,1,S02
2,124,-1,1,1,1,2,2,0,0,0.261877903,0.381875295,1,S02
2,125,-8,8,1,2,1,2,1,1,0.223793454,0.327347765,1,S02
2,126,-2,2,2,1,2,2,0,0,0.859410761,0.995433463,1,S02
2,127,-4,4,1,1,1,2,1,0,0.288971118,0.369108838,1,S02
2,128,-0.5,0.5,1,1,2,1,0,1,0.846026704,0.966020172,1,S02
2,129,1,1,2,1,2,1,1,1,0.071135086,0.167377806,1,S02
2,130,-2,2,2,1,1,2,1,0,0.252064517,0.420076562,1,S02
2,131,8,8,2,2,2,2,1,1,0.370080215,0.65800483,1,S02
2,132,0.25,0.25,2,1,1,1,0,1,0.509397993,0.996694624,1,S02
2,133,-1,1,1,2,1,1,1,0,0.018309127,0.106257408,1,S02
2,134,-4,4,1,2,1,2,1,1,0.086028732,0.206289646,1,S02
2,135,0.5,0.5,2,1,2,2,1,0,0.063870886,0.191836711,1,S02
2,136,0.25,0.25,2,1,2,2,1,0,0.16548516,0.285368148,1,S02
2,137,0.25,0.25,1,1,2,1,1,1,0.204973246,0.341608718,1,S02
2,138,2,2,1,2,2,2,1,1,0.181228535,0.317284743,1,S02
2,139,1,1,2,2,2,2,1,1,0.053206564,0.173163206,1,S02
2,140,-2,2,1,1,1,1,1,1,1.362196604,1.490269286,1,S02
2,141,4,4,1,2,2,2,1,1,0.105683577,0.265664704,1,S02
2,142,-4,4,1,1,1,1,1,1,0.072580379,0.184584888,1,S02
2,143,4,4,2,2,2,2,1,1,0.074016617,0.20205851,1,S02
2,144,0.5,0.5,1,1,2,1,1,1,0.071779853,0.22366124,1,S02
2,145,-0.5,0.5,1,2,2,1,0,0,0.525656337,0.629618759,1,S02
2,146,-0.5,0.5,2,1,1,1,1,1,0.295940101,0.431921449,1,S02
2,147,1,1,1,1,2,1,1,1,0.000719893,0.050228439,1,S02
2,148,2,2,2,1,2,1,1,1,0.23689286,0.357750545,1,S02
2,149,-0.25,0.25,1,1,2,2,0,0,0.869859557,1.02237575,1,S02
2,150,8,8,2,2,2,2,1,1,0.267780725,0.371906754,1,S02
2,151,4,4,1,1,2,1,1,1,1.224950473,1.3129549,1,S02
2,152,0.5,0.5,2,1,2,1,1,1,0.472795664,0.5688135,1,S02
2,153,-1,1,2,2,1,2,1,1,0.166033635,0.270118007,1,S02
2,154,-0.25,0.25,2,2,1,1,1,0,0.308980947,0.396867045,1,S02
2,155,2,2,1,1,2,1,1,1,0.210708537,0.346397687,1,S02
2,156,0.5,0.5,2,1,2,2,1,0,0.071639188,0.183090693,1,S02
2,157,1,1,2,2,1,1,0,0,0.264418335,0.408440863,1,S02
2,158,-8,8,2,2,1,2,1,1,0.514911419,0.634217558,1,S02
2,159,8,8,1,1,2,1,1,1,0.284613806,0.388522799,1,S02
2,160,0.5,0.5,1,1,1,2,0,0,0.397765674,0.469748715,1,S02
2,161,-1,1,2,1,1,1,1,1,0.252711397,0.348744628,1,S02
2,162,-0.25,0.25,2,1,2,2,0,0,0.225860574,0.353370896,1,S02
2,163,4,4,2,2,2,2,1,1,0.214085416,0.374100956,1,S02
2,164,-0.5,0.5,2,1,2,2,0,0,0.427154516,0.683221398,1,S02
2,165,-2,2,2,1,2,1,0,1,0.310336588,0.47839029,1,S02
2,166,-2,2,2,2,1,2,1,1,0.29015772,0.409581582,1,S02
2,167,-0.25,0.25,1,2,2,2,0,1,0.363404034,0.563411459,1,S02
2,168,4,4,1,1,2,1,1,1,0.244306781,0.404221802,1,S02
2,169,-0.5,0.5,1,2,2,1,0,0,0.198439239,0.310103856,1,S02
2,170,2,2,2,2,2,2,1,1,0.118015661,0.237975924,1,S02
2,171,1,1,1,1,2,1,1,1,0.124474806,0.252581297,1,S02
2,172,-0.25,0.25,1,1,2,2,0,0,0.063271699,0.223219925,1,S02
2,173,-1,1,2,1,2,1,0,1,0.2692393,0.389369811,1,S02
2,174,-4,4,2,1,1,1,1,1,0.431104924,0.550649832,1,S02
2,175,-4,4,1,1,1,1,1,1,0.099195452,0.235157481,1,S02
2,176,-0.25,0.25,2,1,2,2,0,0,0.126154341,0.277550341,1,S02
2,177,8,8,2,1,2,1,1,1,0.184770832,0.857459555,1,S02
2,178,-1,1,2,2,2,1,0,0,2.283446523,2.411388199,1,S02
2,179,-2,2,1,1,1,1,1,1,0.077147181,0.205210807,1,S02
2,180,0.25,0.25,1,2,1,1,0,0,0.167581861,0.711012206,1,S02
2,181,1,1,1,2,2,2,1,1,0.262832074,0.398821874,1,S02
2,182,0.5,0.5,2,2,1,1,0,0,0.140532717,0.236594926,1,S02
2,183,2,2,2,1,1,1,0,1,0.206762958,0.294720295,1,S02
2,184,-0.5,0.5,2,2,1,2,1,1,0.206152904,0.302188852,1,S02
2,185,-8,8,2,1,1,1,1,1,0.305881776,0.433927291,1,S02
2,186,-2,2,1,2,1,2,1,1,0.000699065,0.076113017,1,S02
2,187,2,2,2,2,2,2,1,1,0.063841002,0.175387291,1,S02
2,188,8,8,1,1,2,1,1,1,0.269034943,0.780481075,1,S02
2,189,-8,8,1,1,1,1,1,1,11.16561707,11.50953956,1,S02
2,190,8,8,1,2,2,2,1,1,0.30941381,0.389373132,1,S02
2,191,-0.5,0.5,2,2,2,1,0,0,0.366742577,0.454632298,1,S02
2,192,0.25,0.25,1,2,2,2,1,1,0.097431096,0.19349089,1,S02
3,1,0.25,0.25,2,2,2,1,1,0,0.318128435,0.406256019,1,S02
3,2,-0.25,0.25,1,2,2,2,0,1,0.552053771,0.688025459,1,S02
3,3,2,2,1,1,2,1,1,1,0.079594641,0.199368356,1,S02
3,4,1,1,2,2,2,1,1,0,0.348997283,0.44497467,1,S02
3,5,4,4,1,2,2,1,1,0,0.15619761,0.259479343,1,S02
3,6,0.5,0.5,2,2,2,2,1,1,0.24639503,0.342217867,1,S02
3,7,4,4,2,1,2,2,1,0,0.150718897,0.286726808,1,S02
3,8,8,8,2,1,2,1,1,1,0.438190122,0.534765791,1,S02
3,9,4,4,1,1,2,1,1,1,0.34244275,0.478574725,1,S02
3,10,0.5,0.5,2,1,1,1,0,1,0.401710951,0.569780048,1,S02
3,11,0.5,0.5,1,2,2,1,1,0,0.174836401,0.286796537,1,S02
3,12,8,8,2,2,1,1,0,0,0.446268431,0.670306125,1,S02
3,13,-0.5,0.5,2,2,1,2,1,1,0.349236958,0.461456389,1,S02
3,14,-8,8,1,2,1,2,1,1,0.22815137,0.316404829,1,S02
3,15,-0.5,0.5,1,1,1,1,1,1,0.212227182,0.316096028,1,S02
3,16,0.25,0.25,2,2,1,2,0,1,0.19608294,0.316051957,1,S02
3,17,2,2,2,2,1,1,0,0,0.252063913,0.372012404,1,S02
3,18,-1,1,2,1,1,1,1,1,0.2090124,0.289032093,1,S02
3,19,-8,8,2,2,1,2,1,1,0.296532647,0.400588947,1,S02
3,20,-8,8,1,1,1,1,1,1,0.310158794,0.406261452,1,S02
3,21,-8,8,1,2,1,2,1,1,0.223809754,0.351775579,1,S02
3,22,-0.5,0.5,1,1,1,1,1,1,0.484465171,0.548708285,1,S02
3,23,-0.25,0.25,1,2,1,2,1,1,0.177085239,0.281098374,1,S02
3,24,-8,8,2,1,1,2,1,0,0.476321057,0.564365329,1,S02
3,25,8,8,1,1,2,1,1,1,0.309274956,0.44524121,1,S02
3,26,-1,1,2,1,1,1,1,1,0.347847206,0.435711269,1,S02
3,27,0.25,0.25,2,2,1,1,0,0,0.254034741,0.366016006,1,S02
3,28,-8,8,2,2,1,2,1,1,0.158879915,0.278885759,1,S02
3,29,1,1,1,2,1,1,0,0,0.354769099,0.458041777,1,S02
3,30,2,2,1,2,1,1,0,0,0.308815227,0.404859928,1,S02
3,31,-2,2,1,2,2,2,0,1,0.326605196,0.518662903,1,S02
3,32,-8,8,1,2,1,1,1,0,0.126501176,0.262497616,1,S02
3,33,-0.25,0.25,2,1,1,1,1,1,0.645594565,0.749575702,1,S02
3,34,2,2,2,2,2,2,1,1,0.362120536,0.490220083,1,S02
3,35,2,2,1,2,2,2,1,1,0.258248067,0.369551662,1,S02
3,36,-4,4,1,1,1,1,1,1,0.000728345,0.110611098,1,S02
3,37,8,8,1,2,2,1,1,0,0.246649798,0.359189198,1,S02
3,38,0.5,0.5,2,1,2,2,1,0,0.3914644,0.479431698,1,S02
3,39,0.5,0.5,2,1,2,1,1,1,0.242664676,0.379030288,1,S02
3,40,8,8,1,2,2,2,1,1,0.332001803,0.48403925,1,S02
3,41,4,4,2,1,2,1,1,1,0.279159845,0.431215102,1,S02
3,42,0.25,0.25,1,2,1,2,0,1,0.50547777,0.897479815,1,S02
3,43,-1,1,1,1,1,1,1,1,0.317829898,0.469117229,1,S02
3,44,-0.25,0.25,1,1,2,2,0,0,0.260125016,0.884203823,1,S02
3,45,8,8,1,1,2,1,1,1,0.263732817,0.351264233,1,S02
3,46,-4,4,1,2,1,2,1,1,0.259999444,0.379939181,1,S02
3,47,-2,2,2,1,1,1,1,1,0.301279657,0.389385206,1,S02
3,48,-0.5,0.5,2,1,1,1,1,1,0.134631102,0.214701206,1,S02
3,49,-2,2,1,1,2,2,0,0,0.284663612,0.404669758,1,S02
3,50,-4,4,1,2,2,1,0,0,0.9424768,1.023162692,1,S02
3,51,2,2,2,1,2,2,1,0,0.148928882,0.572764814,1,S02
3,52,-8,8,1,1,1,1,1,1,0.000702385,0.08958733,1,S02
3,53,-2,2,1,1,1,1,1,1,0.297008978,0.376924832,1,S02
3,54,0.5,0.5,2,2,1,2,0,1,0.318158319,0.438086283,1,S02
3,55,8,8,2,2,2,2,1,1,0.220565088,0.340618324,1,S02
3,56,-8,8,1,2,1,2,1,1,0.269037961,0.357823897,1,S02
3,57,4,4,1,1,2,2,1,0,0.269861127,0.389993751,1,S02
3,58,-4,4,2,2,1,2,1,1,0.775187099,0.879248531,1,S02
3,59,-1,1,1,1,1,1,1,1,0.242391193,0.378419027,1,S02
3,60,1,1,1,1,2,2,1,0,0.007495083,0.119475142,1,S02
3,61,1,1,1,1,1,1,0,1,0.207540241,0.287462133,1,S02
3,62,-0.5,0.5,2,1,2,2,0,0,0.000701178,0.110865865,1,S02
3,63,0.25,0.25,1,1,2,1,1,1,0.83879752,0.9508787,1,S02
3,64,8,8,2,2,2,2,1,1,0.10003854,0.211445673,1,S02
3,65,-4,4,2,2,1,2,1,1,0.261384668,0.341246489,1,S02
3,66,8,8,2,1,2,1,1,1,0.430223802,0.566029469,1,S02
3,67,-1,1,1,2,1,1,1,0,43.7417099,43.85381161,1,S02
3,68,0.5,0.5,1,2,2,1,1,0,0.448094971,0.704016961,1,S02
3,69,1,1,2,2,2,2,1,1,0.323744493,0.404488644,1,S02
3,70,8,8,2,1,2,1,1,1,0.190012285,0.301491259,1,S02
3,71,4,4,2,2,2,2,1,1,0.273181559,0.385259418,1,S02
3,72,-0.25,0.25,1,2,2,2,0,1,0.610515409,0.722570026,1,S02
3,73,-1,1,1,2,2,1,0,0,3.486708274,3.606651935,1,S02
3,74,2,2,1,1,2,1,1,1,0.336347041,0.680437668,1,S02
3,75,2,2,2,2,2,1,1,0,0.611675145,0.707608461,1,S02
3,76,8,8,2,1,2,1,1,1,0.183345461,0.279335225,1,S02
3,77,-0.25,0.25,2,2,1,2,1,1,0.322590793,0.434551834,1,S02
3,78,-0.5,0.5,2,2,1,2,1,1,0.236737705,0.332797197,1,S02
3,79,-0.25,0.25,1,2,1,1,1,0,0.18923802,0.285401654,1,S02
3,80,-2,2,2,2,1,2,1,1,0.26063908,0.356634277,1,S02
3,81,-0.25,0.25,2,2,1,2,1,1,0.109622213,0.20545984,1,S02
3,82,8,8,2,2,2,2,1,1,0.191464219,0.303379982,1,S02
3,83,-2,2,1,1,1,1,1,1,0.15519665,0.266948504,1,S02
3,84,-2,2,2,1,1,1,1,1,7.033868067,7.121777106,1,S02
3,85,1,1,1,2,2,1,1,0,0.325857495,0.382005093,1,S02
3,86,-4,4,2,1,1,1,1,1,0.271240011,0.343197696,1,S02
3,87,-0.25,0.25,2,1,2,2,0,0,0.307875846,0.403800107,1,S02
3,88,1,1,1,1,2,1,1,1,0.245738792,0.357704059,1,S02
3,89,2,2,2,1,2,1,1,1,0.430511171,0.510566785,1,S02
3,90,4,4,1,2,2,2,1,1,0.198515005,0.318509077,1,S02
3,91,8,8,1,2,2,2,1,1,0.270518572,0.382310573,1,S02
3,92,-0.25,0.25,1,1,2,2,0,0,0.207719846,0.327753461,1,S02
3,93,-0.25,0.25,2,2,2,2,0,1,0.091994039,0.187899283,1,S02
3,94,0.25,0.25,1,2,2,1,1,0,0.245182167,0.365300604,1,S02
3,95,-8,8,2,1,1,1,1,1,0.078145121,0.18217516,1,S02
3,96,-0.5,0.5,2,2,1,2,1,1,0.503466796,0.623408948,1,S02
3,97,-2,2,1,2,1,2,1,1,0.309483237,0.405460021,1,S02
3,98,2,2,1,2,1,1,0,0,0.207349769,0.311269026,1,S02
3,99,0.5,0.5,2,2,1,1,0,0,0.303221506,0.391151072,1,S02
3,100,1,1,2,2,1,1,0,0,0.724851766,1.028645933,1,S02
3,101,-0.5,0.5,1,2,1,2,1,1,0.311041124,0.39943072,1,S02
3,102,-4,4,2,1,1,1,1,1,0.268681166,0.364586409,1,S02
3,103,-2,2,1,1,1,1,1,1,0.381516386,0.453414303,1,S02
3,104,-0.5,0.5,2,1,1,1,1,1,0.192196525,0.272167921,1,S02
3,105,-0.5,0.5,1,1,1,2,1,0,0.223218415,0.311106325,1,S02
3,106,2,2,2,2,2,2,1,1,0.319110075,0.439054642,1,S02
3,107,-4,4,1,1,1,1,1,1,0.085637827,0.18955648,1,S02
3,108,-2,2,2,1,1,2,1,0,0.19103045,0.254942124,1,S02
3,109,2,2,1,1,2,1,1,1,0.097663828,0.20965264,1,S02
3,110,4,4,1,1,2,1,1,1,0.163510408,0.251474688,1,S02
3,111,1,1,2,1,1,2,0,0,0.27030214,0.358240762,1,S02
3,112,4,4,2,1,2,1,1,1,0.29528658,0.415049428,1,S02
3,113,-0.25,0.25,2,2,1,1,1,0,0.229137538,0.31709246,1,S02
3,114,-8,8,1,1,1,1,1,1,0.197514348,0.31697866,1,S02
3,115,0.5,0.5,1,1,1,2,0,0,0.060976073,0.35699892,1,S02
3,116,2,2,1,2,2,2,1,1,0.029795406,0.165796978,1,S02
3,117,4,4,1,2,2,2,1,1,0.150744857,0.294678941,1,S02
3,118,-4,4,2,1,1,1,1,1,0.302223566,0.406201081,1,S02
3,119,-1,1,1,1,1,1,1,1,0.272002805,0.36000693,1,S02
3,120,-0.25,0.25,2,1,1,1,1,1,0.08875209,0.192870271,1,S02
3,121,4,4,2,2,1,1,0,0,0.046348363,0.18235718,1,S02
3,122,-1,1,2,2,1,2,1,1,0.367781872,0.703730197,1,S02
3,123,-4,4,2,2,1,2,1,1,0.363503043,0.755318238,1,S02
3,124,-1,1,1,2,1,2,1,1,0.316322422,0.436228351,1,S02
3,125,-8,8,2,2,1,2,1,1,0.262583042,0.390533774,1,S02
3,126,0.25,0.25,1,2,1,2,0,1,0.396049615,0.612095331,1,S02
3,127,-0.25,0.25,1,1,1,2,1,0,0.222022758,0.30190571,1,S02
3,128,8,8,1,2,2,2,1,1,0.385732731,0.857512984,1,S02
3,129,-8,8,2,2,1,2,1,1,0.276259297,0.381027679,1,S02
3,130,0.25,0.25,2,1,1,2,0,0,0.765618822,0.933616378,1,S02
3,131,-4,4,2,1,1,1,1,1,0.37394882,0.501990411,1,S02
3,132,-0.5,0.5,2,2,1,2,1,1,0.233706151,0.481739097,1,S02
3,133,1,1,2,1,1,1,0,1,0.276869351,0.364908793,1,S02
3,134,-8,8,1,1,1,2,1,0,0.117837867,0.253740731,1,S02
3,135,8,8,1,1,2,1,1,1,0.248604929,0.392571613,1,S02
3,136,0.5,0.5,1,2,1,2,0,1,0.750012188,0.934019056,1,S02
3,137,2,2,2,1,2,1,1,1,0.006421075,0.174453948,1,S02
3,138,4,4,2,1,2,1,1,1,0.243536138,0.427490181,1,S02
3,139,-2,2,2,2,1,2,1,1,0.245817879,0.342327743,1,S02
3,140,0.5,0.5,1,1,1,1,0,1,0.046267465,0.310272595,1,S02
3,141,-4,4,1,1,1,1,1,1,0.926225399,1.094100099,1,S02
3,142,0.25,0.25,1,1,1,2,0,0,0.285620199,0.421562908,1,S02
3,143,2,2,1,1,2,1,1,1,0.051605814,0.251569471,1,S02
3,144,-1,1,2,2,1,2,1,1,0.270363116,0.438351012,1,S02
3,145,-0.25,0.25,1,1,1,1,1,1,0.388841259,0.524807816,1,S02
3,146,-2,2,2,2,1,2,1,1,9.016939297,9.160914736,1,S02
3,147,-8,8,2,1,1,1,1,1,0.290230769,0.393682751,1,S02
3,148,-2,2,1,2,1,2,1,1,0.231330532,0.327203477,1,S02
3,149,-1,1,1,2,1,2,1,1,0.235819153,0.347379629,1,S02
3,150,-4,4,2,2,1,2,1,1,0.015979089,0.127988427,1,S02
3,151,4,4,1,2,2,2,1,1,0.252204277,0.356215298,1,S02
3,152,0.25,0.25,2,1,1,2,0,0,0.180991879,0.284974827,1,S02
3,153,0.25,0.25,2,1,1,2,0,0,0.060540191,0.156600287,1,S02
3,154,0.25,0.25,1,1,1,2,0,0,0.101386938,0.189356047,1,S02
3,155,0.5,0.5,1,1,2,1,1,1,0.094827877,0.246639535,1,S02
3,156,-4,4,1,2,1,2,1,1,0.069621271,0.165158248,1,S02
3,157,0.5,0.5,2,2,1,1,0,0,0.126074349,0.253999423,1,S02
3,158,0.25,0.25,1,2,1,2,0,1,0.200868588,0.400747121,1,S02
3,159,0.25,0.25,2,2,2,1,1,0,2.310296441,2.38237668,1,S02
3,160,1,1,2,2,1,1,0,0,0.23968655,0.328234018,1,S02
3,161,-1,1,2,2,1,2,1,1,0.084424058,0.203773664,1,S02
3,162,1,1,1,2,1,1,0,0,0.173791673,0.277630334,1,S02
3,163,0.5,0.5,1,2,1,2,0,1,0.201404385,0.312787369,1,S02
3,164,8,8,1,1,2,1,1,1,0.105232903,0.248810494,1,S02
3,165,1,1,1,2,2,2,1,1,0.199397033,0.343281009,1,S02
3,166,1,1,2,1,2,1,1,1,0.219887117,0.332003011,1,S02
3,167,-1,1,2,2,2,1,0,0,0.164229131,0.308948044,1,S02
3,168,-0.5,0.5,1,2,1,1,1,0,12.29197611,12.36477839,1,S02
3,169,-0.25,0.25,2,1,2,2,0,0,0.22870558,0.324716172,1,S02
3,170,-1,1,1,1,2,2,0,0,0.544839378,0.64885372,1,S02
3,171,-2,2,2,1,2,2,0,0,0.139614165,0.251647048,1,S02
3,172,4,4,1,1,2,1,1,1,0.270380623,0.382318119,1,S02
3,173,1,1,2,1,2,1,1,1,0.000700574,0.103716673,1,S02
3,174,-0.5,0.5,1,2,2,1,0,0,0.13145526,0.27539025,1,S02
3,175,4,4,2,2,2,2,1,1,0.078671863,0.206668477,1,S02
3,176,-1,1,2,1,1,1,1,1,0.096421383,0.200439649,1,S02
3,177,0.25,0.25,1,1,1,1,0,1,0.094484665,0.197895594,1,S02
3,178,-2,2,1,2,1,2,1,1,0.283560927,0.675574443,1,S02
3,179,0.5,0.5,1,1,1,2,0,0,0.350851292,0.471032817,1,S02
3,180,0.5,0.5,2,1,2,1,1,1,0.205717626,0.365808932,1,S02
3,181,-2,2,2,2,1,2,1,1,0.23863669,0.326635079,1,S02
3,182,-8,8,2,1,1,1,1,1,0.242735311,0.346745125,1,S02
3,183,2,2,2,1,2,1,1,1,0.175524938,0.295418189,1,S02
3,184,-1,1,2,1,1,2,1,0,0.319308395,0.534814088,1,S02
3,185,-0.5,0.5,2,1,1,1,1,1,0.167261289,0.303336514,1,S02
3,186,1,1,1,1,1,2,0,0,0.130881429,0.258946867,1,S02
3,187,0.25,0.25,2,1,2,1,1,1,0.061760903,0.197677049,1,S02
3,188,4,4,2,2,1,1,0,0,1.955197375,2.37125595,1,S02
3,189,-4,4,1,1,1,2,1,0,0.448904251,0.552291333,1,S02
3,190,-0.5,0.5,1,2,1,1,1,0,0.196872901,0.308872882,1,S02
3,191,-4,4,1,2,1,2,1,1,0.000700272,0.068859081,1,S02
3,192,-0.5,0.5,1,1,1,1,1,1,0.000703291,0.052230056,1,S02
1,1,2,2,1,2,2,2,1,1,1.313409223,1.041355669,2,S02
1,2,-2,2,2,1,2,1,0,1,1.39332387,1.129297309,2,S02
1,3,8,8,2,2,2,2,1,1,1.022856033,0.798837357,2,S02
1,4,-2,2,1,2,2,1,0,0,0.772846826,0.484846143,2,S02
1,5,0.5,0.5,1,1,2,1,1,1,3.193989888,3.017957792,2,S02
1,6,0.5,0.5,2,2,2,2,1,1,0.631318244,0.439389128,2,S02
1,7,1,1,2,1,2,2,1,0,1.465678195,1.241665556,2,S02
1,8,-8,8,2,2,1,2,1,1,0.984601638,0.73667555,2,S02
1,9,-4,4,1,1,1,1,1,1,0.593990552,0.386106458,2,S02
1,10,1,1,1,2,1,2,0,1,0.775503776,0.559546504,2,S02
1,11,-0.25,0.25,2,2,2,1,0,0,0.71663463,0.564661177,2,S02
1,12,0.25,0.25,1,1,2,1,1,1,0.596630597,0.452565809,2,S02
1,13,0.5,0.5,1,1,2,1,1,1,0.666044529,0.506758579,2,S02
1,14,-4,4,2,2,1,2,1,1,0.753136139,0.585047723,2,S02
1,15,0.25,0.25,2,1,1,1,0,1,0.885679632,0.70965146,2,S02
1,16,4,4,2,2,2,2,1,1,0.792861183,0.624876003,2,S02
1,17,-0.5,0.5,2,1,2,1,0,1,0.510409545,0.358396246,2,S02
1,18,4,4,1,1,2,1,1,1,1.518351112,1.358378738,2,S02
1,19,4,4,1,1,2,1,1,1,0.534282545,0.398190114,2,S02
1,20,-4,4,1,2,1,2,1,1,0.598632818,0.446601408,2,S02
1,21,-2,2,2,2,1,2,1,1,1.332900159,1.188145928,2,S02
1,22,-0.25,0.25,1,1,2,1,0,1,0.572479285,0.444577454,2,S02
1,23,-0.5,0.5,2,2,2,1,0,0,3.065593916,2.961635418,2,S02
1,24,2,2,2,2,2,1,1,0,0.456559987,0.336609987,2,S02
1,25,-8,8,2,2,1,2,1,1,0.491312533,0.355209839,2,S02
1,26,-2,2,1,2,1,2,1,1,0.546780047,0.4347206,2,S02
1,27,8,8,1,2,2,2,1,1,0.599983932,0.447363598,2,S02
1,28,0.5,0.5,2,2,1,1,0,0,1.020781669,0.9008368,2,S02
1,29,8,8,2,1,2,2,1,0,1.098922903,0.938843068,2,S02
1,30,0.25,0.25,1,2,2,1,1,0,0.862503922,0.742553922,2,S02
1,31,0.25,0.25,2,1,2,1,1,1,1.061505559,0.342159636,2,S02
1,32,-1,1,1,2,2,1,0,0,1.652462151,1.508595683,2,S02
1,33,2,2,1,1,2,1,1,1,0.807427918,0.663214314,2,S02
1,34,-8,8,1,1,1,1,1,1,0.657514641,0.512989822,2,S02
1,35,8,8,2,1,2,1,1,1,0.347769053,0.243802404,2,S02
1,36,4,4,2,2,2,2,1,1,0.536312838,0.40832377,2,S02
1,37,0.25,0.25,1,1,2,1,1,1,0.520720995,0.368723393,2,S02
1,38,-1,1,2,2,2,1,0,0,0.968642133,0.856633399,2,S02
1,39,-0.25,0.25,1,2,2,2,0,1,0.661817921,0.526422479,2,S02
1,40,2,2,2,1,2,1,1,1,2.424515404,2.28044488,2,S02
1,41,2,2,1,2,2,2,1,1,0.718864753,0.574494183,2,S02
1,42,2,2,2,1,2,1,1,1,0.438423788,0.294445934,2,S02
1,43,8,8,1,1,2,1,1,1,0.352600583,0.224737088,2,S02
1,44,-8,8,1,2,1,2,1,1,0.453259478,0.309314527,2,S02
1,45,2,2,2,2,2,2,1,1,0.551988597,0.432040408,2,S02
1,46,-0.5,0.5,2,2,2,1,0,0,0.356616193,0.244651831,2,S02
1,47,-2,2,1,1,1,1,1,1,0.725521314,0.509514236,2,S02
1,48,-8,8,1,2,1,2,1,1,0.353667649,0.233763531,2,S02
1,49,-2,2,2,1,1,1,1,1,1.318360591,1.198246984,2,S02
1,50,-2,2,1,2,1,2,1,1,2.398106499,2.270181727,2,S02
1,51,1,1,1,2,2,2,1,1,0.81965888,0.667652826,2,S02
1,52,-4,4,1,2,1,2,1,1,0.585858512,0.44971386,2,S02
1,53,-4,4,2,1,1,1,1,1,0.355024498,0.203020859,2,S02
1,54,4,4,1,1,2,1,1,1,1.591637573,1.456188099,2,S02
1,55,-0.5,0.5,1,1,2,1,0,1,0.621223528,0.493162618,2,S02
1,56,-2,2,2,2,1,2,1,1,0.49115768,0.363165292,2,S02
1,57,0.5,0.5,1,2,2,2,1,1,0.522781172,0.362685339,2,S02
1,58,8,8,2,2,2,2,1,1,0.359022902,0.254991958,2,S02
1,59,-1,1,2,1,1,1,1,1,0.53563064,0.407683531,2,S02
1,60,4,4,1,2,2,2,1,1,0.304107486,0.224117978,2,S02
1,61,-0.25,0.25,2,2,2,2,0,1,0.651779048,0.524482441,2,S02
1,62,-1,1,1,2,1,1,1,0,0.918595376,0.75044025,2,S02
1,63,0.5,0.5,2,1,2,1,1,1,0.76638587,0.63846321,2,S02
1,64,0.25,0.25,2,2,1,2,0,1,0.607226398,0.45528645,2,S02
1,65,0.25,0.25,1,2,1,2,0,1,0.656986391,0.521051529,2,S02
1,66,2,2,1,1,2,1,1,1,0.411837995,0.283698602,2,S02
1,67,-8,8,1,2,1,2,1,1,0.277536786,0.149624389,2,S02
1,68,2,2,1,1,2,1,1,1,0.888757068,0.776897753,2,S02
1,69,-0.5,0.5,1,2,1,2,1,1,0.768213315,0.592771652,2,S02
1,70,4,4,2,1,2,1,1,1,0.245336444,0.117350697,2,S02
1,71,-1,1,1,2,2,1,0,0,0.331903425,0.203892322,2,S02
1,72,8,8,1,1,2,1,1,1,0.335926279,0.256074721,2,S02
1,73,-1,1,2,1,2,2,0,0,1.768529057,1.632309242,2,S02
1,74,0.25,0.25,1,2,2,1,1,0,0.357411285,0.253412036,2,S02
1,75,-2,2,2,1,1,1,1,1,1.254363793,1.102346268,2,S02
1,76,4,4,1,1,2,1,1,1,1.065078948,0.969050546,2,S02
1,77,-1,1,1,1,1,1,1,1,0.336122185,0.231998269,2,S02
1,78,8,8,1,2,2,2,1,1,0.224340447,0.152755859,2,S02
1,79,-1,1,1,1,2,1,0,1,0.502357497,0.366445879,2,S02
1,80,-2,2,1,1,1,1,1,1,0.730140336,0.642067086,2,S02
1,81,0.5,0.5,2,1,2,2,1,0,0.790321656,0.662235994,2,S02
1,82,-2,2,2,1,1,1,1,1,0.991559453,0.431556531,2,S02
1,83,-8,8,2,1,1,1,1,1,0.325157515,0.213135801,2,S02
1,84,0.5,0.5,2,2,2,2,1,1,0.75326473,0.385561907,2,S02
1,85,-0.5,0.5,1,2,2,2,0,1,0.397886445,0.31785347,2,S02
1,86,2,2,2,2,2,2,1,1,0.371568702,0.259534007,2,S02
1,87,-0.25,0.25,1,1,1,1,1,1,0.352707743,0.208596468,2,S02
1,88,1,1,2,2,2,2,1,1,0.35713418,0.245279695,2,S02
1,89,1,1,2,1,2,1,1,1,0.342061532,0.214171473,2,S02
1,90,-0.5,0.5,1,1,1,1,1,1,0.807041238,0.678402573,2,S02
1,91,8,8,1,2,2,2,1,1,7.720086974,7.480067438,2,S02
1,92,8,8,2,2,2,2,1,1,0.360019334,0.256072004,2,S02
1,93,-4,4,2,2,1,2,1,1,0.824683599,0.696695738,2,S02
1,94,-8,8,1,1,1,1,1,1,0.302904584,0.214821674,2,S02
1,95,8,8,2,2,2,2,1,1,0.306475859,0.218555047,2,S02
1,96,-8,8,2,2,1,2,1,1,0.45481676,0.342319017,2,S02
1,97,0.5,0.5,2,1,2,1,1,1,0.480930448,0.376907051,2,S02
1,98,8,8,2,1,2,1,1,1,0.388163315,0.260166701,2,S02
1,99,0.25,0.25,1,1,2,1,1,1,0.757487414,0.685408383,2,S02
1,100,1,1,1,1,2,1,1,1,0.254363793,0.094292108,2,S02
1,101,-1,1,1,1,2,2,0,0,0.433147319,0.353707494,2,S02
1,102,4,4,1,2,2,2,1,1,0.547410325,0.395446833,2,S02
1,103,-0.5,0.5,1,2,1,1,1,0,0.399857272,0.255924094,2,S02
1,104,-8,8,2,2,1,2,1,1,0.325539968,0.205600835,2,S02
1,105,-4,4,2,1,1,1,1,1,1.217797083,1.105784425,2,S02
1,106,2,2,2,1,2,1,1,1,1.103661461,1.007694941,2,S02
1,107,2,2,2,1,2,1,1,1,4.003252203,3.115310744,2,S02
1,108,-2,2,1,1,1,1,1,1,0.317060491,0.165534994,2,S02
